left_gabor_ori,right_gabor_ori,left_distractor_ori,right_distractor_ori,similarity_range,cue,probe_x,probe_ori,correct_response,rotate_direction,similarity,another_similarity,instru_trials.thisRepN,instru_trials.thisTrialN,instru_trials.thisN,instru_trials.thisIndex,practice_loop.thisRepN,practice_loop.thisTrialN,practice_loop.thisN,practice_loop.thisIndex,practice.thisRepN,practice.thisTrialN,practice.thisN,practice.thisIndex,trials.thisRepN,trials.thisTrialN,trials.thisN,trials.thisIndex,fixation.started,fixation.stopped,left_gabor.started,left_gabor.stopped,right_gabor.started,right_gabor.stopped,fixation2.started,fixation2.stopped,left_distractor_prac.started,left_distractor_prac.stopped,right_distractor_prac.started,right_distractor_prac.stopped,cue_text.started,cue_text.stopped,fixation3.started,fixation3.stopped,cue_resp.started,cue_resp.stopped,probe.started,probe.stopped,probe_resp.keys,probe_resp.rt,response_ori,buffer.started,buffer.stopped,begin_text.started,begin_text.stopped,key_resp_3.keys,key_resp_3.rt,key_resp_3.started,key_resp_3.stopped,fix_cross.started,fix_cross.stopped,left_target.started,left_target.stopped,right_target.started,right_target.stopped,fix_cross2.started,fix_cross2.stopped,left_distractor_main.started,left_distractor_main.stopped,right_distractor_main.started,right_distractor_main.stopped,main_cue.started,main_cue.stopped,fix_cross3.started,fix_cross3.stopped,take_break.started,take_break.stopped,participant,date,expName,psychopyVersion,frameRate,
,,,,,,,,,,,,0,0,0,0,,,,,,,,,,,,,,,,,,,,,,,,,,,,,,,,,,,,,,,,,,,,,,,,,,,,,,,,,,,,,,4444,2022_Nov_28_1134,circle_rotation,2021.2.3,61.01227214519126,
22,150,-18,107,"[25,45] degrees",neutral,-0.4,-12,22,anticlockwise,-40,-43,,,,,0,0,0,0,0,0,0,12,,,,,18.493524228106253,None,18.493524228106253,19.50670951709617,18.493524228106253,19.50670951709617,20.49028394103516,None,20.49028394103516,21.490372494095936,20.49028394103516,21.490372494095936,22.491158806020394,22.691258284030482,22.491158806020394,None,24.091533454018645,None,24.091533454018645,None,space,1.3412334620952606,-41.445821764467915,26.95773291401565,None,,,,,,,,,,,,,,,,,,,,,,,,,4444,2022_Nov_28_1134,circle_rotation,2021.2.3,61.01227214519126,
143,14,123,-28,"[25,45] degrees",neutral,0.4,36,14,anticlockwise,-42,-20,,,,,0,0,0,0,0,1,1,6,,,,,27.460197881096974,None,27.460197881096974,28.460274883080274,27.460197881096974,28.460274883080274,29.4594277900178,None,29.4594277900178,30.459756785072386,29.4594277900178,30.459756785072386,31.44931268610526,31.647006247076206,31.44931268610526,None,33.06088606710546,None,33.06088606710546,None,space,4.262272853055038,-45.178490947553605,38.845533874002285,None,,,,,,,,,,,,,,,,,,,,,,,,,4444,2022_Nov_28_1134,circle_rotation,2021.2.3,61.01227214519126,
56,83,80,115,"[25,45] degrees",neutral,-0.4,54,56,clockwise,24,32,,,,,0,0,0,0,0,2,2,4,,,,,39.345441757002845,None,39.345441757002845,40.346029164036736,39.345441757002845,40.346029164036736,41.336040109046735,None,41.336040109046735,42.34674846904818,41.336040109046735,42.34674846904818,43.34703330101911,43.54699802608229,43.34703330101911,None,44.94724950904492,None,44.94724950904492,None,None,,-45.178490947553605,51.44787867704872,None,,,,,,,,,,,,,,,,,,,,,,,,,4444,2022_Nov_28_1134,circle_rotation,2021.2.3,61.01227214519126,
82,9,122,53,"[25,45] degrees",left,-0.4,91,82,clockwise,40,44,,,,,0,0,0,0,0,3,3,5,,,,,51.93930440803524,None,51.93930440803524,52.95087315700948,51.93930440803524,52.95087315700948,53.95073605701327,None,53.95073605701327,54.95072574610822,53.95073605701327,54.95072574610822,55.95080365811009,56.150697284028865,55.95080365811009,None,57.55075784807559,None,57.55075784807559,None,space,1.4731777759734541,-45.178490947553605,60.53889788710512,None,,,,,,,,,,,,,,,,,,,,,,,,,4444,2022_Nov_28_1134,circle_rotation,2021.2.3,61.01227214519126,
25,95,54,134,"[25,45] degrees",neutral,-0.4,66,25,clockwise,29,39,,,,,0,0,0,0,0,4,4,0,,,,,61.033862053998746,None,61.033862053998746,62.02248634304851,61.033862053998746,62.02248634304851,63.035583406104706,None,63.035583406104706,64.035982024041,63.035583406104706,64.035982024041,65.03600703703705,65.23617073602509,65.03600703703705,None,66.6275568830315,None,66.6275568830315,None,None,,-45.178490947553605,73.13869643805083,None,,,,,,,,,,,,,,,,,,,,,,,,,4444,2022_Nov_28_1134,circle_rotation,2021.2.3,61.01227214519126,
168,90,204,126,"[25,45] degrees",right,0.4,125,90,clockwise,36,36,,,,,0,0,0,0,0,5,5,3,,,,,73.63870158907957,None,73.63870158907957,74.63885794510134,73.63870158907957,74.63885794510134,75.62831310101319,None,75.62831310101319,76.62148802506272,75.62831310101319,76.62148802506272,77.64000229001977,77.84008976409677,77.64000229001977,None,79.24155493604485,None,79.24155493604485,None,None,,-45.17738574753227,85.74363789800555,None,,,,,,,,,,,,,,,,,,,,,,,,,4444,2022_Nov_28_1134,circle_rotation,2021.2.3,61.01227214519126,
105,65,135,109,"[25,45] degrees",left,-0.4,81,105,clockwise,30,44,,,,,0,0,0,0,0,6,6,1,,,,,86.24386070703622,None,86.24386070703622,87.24386607308406,86.24386070703622,87.24386607308406,88.2596452080179,None,88.2596452080179,89.2597439440433,88.2596452080179,89.2597439440433,90.25977486209013,90.44831374508794,90.25977486209013,None,91.8426656021038,None,91.8426656021038,None,None,,-44.4911698646638,98.34565972606651,None,,,,,,,,,,,,,,,,,,,,,,,,,4444,2022_Nov_28_1134,circle_rotation,2021.2.3,61.01227214519126,
156,12,191,35,"[25,45] degrees",neutral,0.4,46,12,clockwise,23,35,,,,,0,0,0,0,0,7,7,2,,,,,98.84593163407408,None,98.84593163407408,99.84599160705693,98.84593163407408,99.84599160705693,100.84629793302156,None,100.84629793302156,101.8344058690127,100.84629793302156,101.8344058690127,102.84844493004493,103.06497530709021,102.84844493004493,None,104.44848756608553,None,104.44848756608553,None,space,1.0704749309225008,-57.9234714069014,107.04949437303003,None,,,,,,,,,,,,,,,,,,,,,,,,,4444,2022_Nov_28_1134,circle_rotation,2021.2.3,61.01227214519126,
155,74,120,43,"[25,45] degrees",neutral,-0.4,194,155,anticlockwise,-35,-31,,,,,0,0,0,0,0,8,8,8,,,,,107.5494412840344,None,107.5494412840344,108.54930687404703,107.5494412840344,108.54930687404703,109.5496274640318,None,109.5496274640318,110.54922653001267,109.5496274640318,110.54922653001267,111.54940245510079,111.74790960608516,111.54940245510079,None,113.14968856505584,None,113.14968856505584,None,space,1.8417962670791894,-57.9234714069014,116.50480053108186,None,,,,,,,,,,,,,,,,,,,,,,,,,4444,2022_Nov_28_1134,circle_rotation,2021.2.3,61.01227214519126,
8,161,-35,120,"[25,45] degrees",left,-0.4,25,8,anticlockwise,-43,-41,,,,,0,0,0,0,0,9,9,9,,,,,116.99957277206704,None,116.99957277206704,118.00127450504806,116.99957277206704,118.00127450504806,119.00137282907963,None,119.00137282907963,120.00136890308931,119.00137282907963,120.00136890308931,121.0019442900084,121.20086936710868,121.0019442900084,None,122.60263090708759,None,122.60263090708759,None,None,,68.44292071496228,129.12069824407808,None,,,,,,,,,,,,,,,,,,,,,,,,,4444,2022_Nov_28_1134,circle_rotation,2021.2.3,61.01227214519126,
90,23,57,-5,"[25,45] degrees",right,0.4,31,23,anticlockwise,-28,-33,,,,,0,0,0,0,0,10,10,11,,,,,129.62082350905985,None,129.62082350905985,130.62127217906527,129.62082350905985,130.62127217906527,131.61083375406452,None,131.61083375406452,132.62212037306745,131.61083375406452,132.62212037306745,133.62214980903082,133.8223252950702,133.62214980903082,None,135.2224366280716,None,135.2224366280716,None,space,3.9444632969098166,70.07522164639894,140.69032328308094,None,,,,,,,,,,,,,,,,,,,,,,,,,4444,2022_Nov_28_1134,circle_rotation,2021.2.3,61.01227214519126,
94,44,72,8,"[25,45] degrees",neutral,0.4,34,44,anticlockwise,-36,-22,,,,,0,0,0,0,0,11,11,10,,,,,141.18088016705588,None,141.18088016705588,142.1731431580847,141.18088016705588,142.1731431580847,143.1916456600884,None,143.1916456600884,144.1919902950758,143.1916456600884,144.1919902950758,145.19253544299863,145.39215618406888,145.19253544299863,None,146.79200512205716,None,146.79200512205716,None,space,2.207286934950389,75.59600946706267,150.52674533810932,None,,,,,,,,,,,,,,,,,,,,,,,,,4444,2022_Nov_28_1134,circle_rotation,2021.2.3,61.01227214519126,
67,96,30,71,"[25,45] degrees",right,0.4,131,96,anticlockwise,-25,-37,,,,,0,0,0,0,0,12,12,7,,,,,151.01670676702634,None,151.01670676702634,152.01475586206652,151.01670676702634,152.01475586206652,153.02777557005174,None,153.02777557005174,154.0282021400053,153.02777557005174,154.0282021400053,155.02839549502824,155.22837765107397,155.02839549502824,None,156.61994926503394,None,156.61994926503394,None,space,0.5915330899879336,-97.07951643429476,158.74605071207043,None,,,,,,,,,,,,,,,,,,,,,,,,,4444,2022_Nov_28_1134,circle_rotation,2021.2.3,61.01227214519126,
,,,,,,,,,,,,,,,,,,,,,,,,,,,,,,,,,,,,,,,,,,,,,,,,,,,,,163.08083072700538,None,space,2.512199134915136,163.08083072700538,None,,,,,,,,,,,,,,,,,,,4444,2022_Nov_28_1134,circle_rotation,2021.2.3,61.01227214519126,
22,128,61,173,"[25,45] degrees",right,0.4,126,128,clockwise,45,39,,,,,,,,,,,,,0,0,0,59,,,,,,,,,,,,,,,,,170.01595734606963,None,170.01595734606963,None,space,0.5602577700046822,-94.7801629646377,170.59939402609598,None,,,,,,,165.62095683300868,None,165.62095683300868,166.3814113860717,165.62095683300868,166.3814113860717,167.01462625700515,None,167.01462625700515,167.7655406530248,167.01462625700515,167.7655406530248,168.4152920570923,168.6155966130318,168.4152920570923,None,171.09930624883856,None,4444,2022_Nov_28_1134,circle_rotation,2021.2.3,61.01227214519126,
9,72,-32,40,"[25,45] degrees",neutral,-0.4,-28,9,anticlockwise,-41,-32,,,,,,,,,,,,,0,1,1,60,,,,,,,,,,,,,,,,,175.50060356908944,None,175.50060356908944,None,space,0.363426159019582,-94.7801629646377,175.88414892100263,None,,,,,,,171.09929524804465,None,171.09929524804465,171.84935641707852,171.09929524804465,171.84935641707852,172.50019063905347,None,172.50019063905347,173.25027589406818,172.50019063905347,173.25027589406818,173.90037065802608,174.10039418609813,173.90037065802608,None,176.38421990281205,None,4444,2022_Nov_28_1134,circle_rotation,2021.2.3,61.01227214519126,
80,179,119,210,"[25,45] degrees",right,0.4,135,179,clockwise,31,39,,,,,,,,,,,,,0,2,2,23,,,,,,,,,,,,,,,,,180.78540391509887,None,180.78540391509887,None,space,0.6018049750709906,-94.7801629646377,181.41897879401222,None,,,,,,,176.38401230610907,None,176.38401230610907,177.13427704304922,176.38401230610907,177.13427704304922,177.78497232904192,None,177.78497232904192,178.53505334304646,177.78497232904192,178.53505334304646,179.18507515802048,179.3851041130256,179.18507515802048,None,181.91884083080805,None,4444,2022_Nov_28_1134,circle_rotation,2021.2.3,61.01227214519126,
156,70,119,25,"[25,45] degrees",neutral,-0.4,126,156,anticlockwise,-37,-45,,,,,,,,,,,,,0,3,3,84,,,,,,,,,,,,,,,,,186.31940211704932,None,186.31940211704932,None,space,0.8277668420923874,-94.7801629646377,187.15945760405157,None,,,,,,,181.91862696805038,None,181.91862696805038,182.66961286810692,181.91862696805038,182.66961286810692,183.31975235510617,None,183.31975235510617,184.0699018581072,183.31975235510617,184.0699018581072,184.71992108109407,184.9202365730889,184.71992108109407,None,187.6710659298231,None,4444,2022_Nov_28_1134,circle_rotation,2021.2.3,61.01227214519126,
60,110,36,68,"[25,45] degrees",neutral,-0.4,41,60,anticlockwise,-24,-42,,,,,,,,,,,,,0,4,4,72,,,,,,,,,,,,,,,,,192.0614548320882,None,192.0614548320882,None,space,0.3731188630918041,-94.7801629646377,192.45593005802948,None,,,,,,,187.67122079106048,None,187.67122079106048,188.4214115299983,187.67122079106048,188.4214115299983,189.0715015460737,None,189.0715015460737,189.821384349023,189.0715015460737,189.821384349023,190.4614773450885,190.65997722302563,190.4614773450885,None,192.95589400782484,None,4444,2022_Nov_28_1134,circle_rotation,2021.2.3,61.01227214519126,
28,131,56,173,"[25,45] degrees",left,-0.4,62,28,clockwise,28,42,,,,,,,,,,,,,0,5,5,25,,,,,,,,,,,,,,,,,197.35730302205775,None,197.35730302205775,None,space,0.3087788730626926,-94.7801629646377,197.6904276650166,None,,,,,,,192.9559476870345,None,192.9559476870345,193.7062619701028,192.9559476870345,193.7062619701028,194.35620597808156,None,194.35620597808156,195.10647178906947,194.35620597808156,195.10647178906947,195.7565640200628,195.9563812770648,195.7565640200628,None,198.1905602878076,None,4444,2022_Nov_28_1134,circle_rotation,2021.2.3,61.01227214519126,
5,133,30,165,"[25,45] degrees",right,0.4,121,133,clockwise,32,25,,,,,,,,,,,,,0,6,6,27,,,,,,,,,,,,,,,,,202.5919706650311,None,202.5919706650311,None,space,1.3959878699388355,-94.7801629646377,204.00875288806856,None,,,,,,,198.1908456190722,None,198.1908456190722,198.94090836204123,198.1908456190722,198.94090836204123,199.59081839909777,None,199.59081839909777,200.34080587909557,199.59081839909777,200.34080587909557,200.99140526901465,201.19001107709482,200.99140526901465,None,204.5091377558536,None,4444,2022_Nov_28_1134,circle_rotation,2021.2.3,61.01227214519126,
3,107,-19,84,"[25,45] degrees",left,-0.4,-42,3,anticlockwise,-22,-23,,,,,,,,,,,,,0,7,7,97,,,,,,,,,,,,,,,,,208.910106287105,None,208.910106287105,None,space,1.073910861974582,-94.7801629646377,210.0103627650533,None,,,,,,,204.5089012180688,None,204.5089012180688,205.2591482520802,204.5089012180688,205.2591482520802,205.9083215680439,None,205.9083215680439,206.64738947805017,205.9083215680439,206.64738947805017,207.30000265000854,207.51009348104708,207.30000265000854,None,210.51040938788793,None,4444,2022_Nov_28_1134,circle_rotation,2021.2.3,61.01227214519126,
173,117,141,83,"[25,45] degrees",neutral,-0.4,168,173,anticlockwise,-32,-34,,,,,,,,,,,,,0,8,8,64,,,,,,,,,,,,,,,,,214.91211971407756,None,214.91211971407756,None,space,3.509235062985681,-94.7801629646377,218.4462986040162,None,,,,,,,210.50968213006854,None,210.50968213006854,211.25962984911166,210.50968213006854,211.25962984911166,211.89980850811116,None,211.89980850811116,212.66138175304513,211.89980850811116,212.66138175304513,213.31157048000023,213.51185894408263,213.31157048000023,None,218.9463058757945,None,4444,2022_Nov_28_1134,circle_rotation,2021.2.3,61.01227214519126,
32,2,8,-28,"[25,45] degrees",neutral,-0.4,7,32,anticlockwise,-24,-30,,,,,,,,,,,,,0,9,9,108,,,,,,,,,,,,,,,,,223.34765247208998,None,223.34765247208998,None,space,3.5337045090273023,-94.7801629646377,226.8985761880176,None,,,,,,,218.94655340106692,None,218.94655340106692,219.6963982700836,218.94655340106692,219.6963982700836,220.34681593708228,None,220.34681593708228,221.09692642709706,220.34681593708228,221.09692642709706,221.7460420000134,221.9342989641009,221.7460420000134,None,227.39916330879788,None,4444,2022_Nov_28_1134,circle_rotation,2021.2.3,61.01227214519126,
50,17,12,-20,"[25,45] degrees",neutral,0.4,31,17,anticlockwise,-37,-38,,,,,,,,,,,,,0,10,10,62,,,,,,,,,,,,,,,,,231.79880561004393,None,231.79880561004393,None,space,2.496428651968017,-94.7801629646377,234.31727694510482,None,,,,,,,227.3990478980122,None,227.3990478980122,228.14887114800513,227.3990478980122,228.14887114800513,228.79895173211116,None,228.79895173211116,229.5485380809987,228.79895173211116,229.5485380809987,230.19930723006837,230.3875934930984,230.19930723006837,None,234.8176134048379,None,4444,2022_Nov_28_1134,circle_rotation,2021.2.3,61.01227214519126,
63,126,90,157,"[25,45] degrees",right,0.4,133,126,clockwise,31,27,,,,,,,,,,,,,0,11,11,47,,,,,,,,,,,,,,,,,239.21900663501583,None,239.21900663501583,None,space,0.7905903509818017,-94.7801629646377,240.03551778104156,None,,,,,,,234.81708815402817,None,234.81708815402817,235.5680303000845,234.81708815402817,235.5680303000845,236.21798059903085,None,236.21798059903085,236.96795908000786,236.21798059903085,236.96795908000786,237.61841523007024,237.81856184010394,237.61841523007024,None,240.53587804386626,None,4444,2022_Nov_28_1134,circle_rotation,2021.2.3,61.01227214519126,
70,157,105,177,"[25,45] degrees",neutral,0.4,134,157,clockwise,20,35,,,,,,,,,,,,,0,12,12,42,,,,,,,,,,,,,,,,,244.93665440310724,None,244.93665440310724,None,space,2.3514359130058438,-94.7801629646377,247.3085683180252,None,,,,,,,240.5359066230012,None,240.5359066230012,241.28605773404706,240.5359066230012,241.28605773404706,241.9349552380154,None,241.9349552380154,242.68649804906454,241.9349552380154,242.68649804906454,243.33686220506206,243.5368504730286,243.33686220506206,None,247.8213691328536,None,4444,2022_Nov_28_1134,circle_rotation,2021.2.3,61.01227214519126,
166,104,126,63,"[25,45] degrees",left,-0.4,194,166,anticlockwise,-40,-41,,,,,,,,,,,,,0,13,13,77,,,,,,,,,,,,,,,,,252.22102690511383,None,252.22102690511383,None,space,1.5244932289933786,-94.7801629646377,253.77277920604683,None,,,,,,,247.82136453408748,None,247.82136453408748,248.5716772150481,247.82136453408748,248.5716772150481,249.2215798140969,None,249.2215798140969,249.97212994401343,249.2215798140969,249.97212994401343,250.61294653406367,250.80983974109404,250.61294653406367,None,254.2729060988757,None,4444,2022_Nov_28_1134,circle_rotation,2021.2.3,61.01227214519126,
48,139,8,104,"[25,45] degrees",right,0.4,146,139,anticlockwise,-35,-40,,,,,,,,,,,,,0,14,14,99,,,,,,,,,,,,,,,,,258.67437368107494,None,258.67437368107494,None,space,2.2264090690296143,-94.7801629646377,260.9235232800711,None,,,,,,,254.2729207871016,None,254.2729207871016,255.02320457808673,254.2729207871016,255.02320457808673,255.67338049504906,None,255.67338049504906,256.4224279090995,255.67338049504906,256.4224279090995,257.07222370407544,257.26140791911166,257.07222370407544,None,261.4249422308174,None,4444,2022_Nov_28_1134,circle_rotation,2021.2.3,61.01227214519126,
97,22,59,2,"[25,45] degrees",neutral,0.4,-17,22,anticlockwise,-20,-38,,,,,,,,,,,,,0,15,15,90,,,,,,,,,,,,,,,,,265.82592643308453,None,265.82592643308453,None,space,1.57719314401038,-94.7801629646377,267.42711236304604,None,,,,,,,261.42472430109046,None,261.42472430109046,262.1737023170572,261.42472430109046,262.1737023170572,262.82563120906707,None,262.82563120906707,263.5756729320856,262.82563120906707,263.5756729320856,264.2259370170068,264.42583740502596,264.2259370170068,None,267.92731956486824,None,4444,2022_Nov_28_1134,circle_rotation,2021.2.3,61.01227214519126,
34,179,58,203,"[25,45] degrees",neutral,0.4,163,179,clockwise,24,24,,,,,,,,,,,,,0,16,16,58,,,,,,,,,,,,,,,,,272.31668510008603,None,272.31668510008603,None,space,1.7232298370217904,-94.7801629646377,274.06202620407566,None,,,,,,,267.9270895990776,None,267.9270895990776,268.6773726820247,267.9270895990776,268.6773726820247,269.3273653560318,None,269.3273653560318,270.07740599510726,269.3273653560318,270.07740599510726,270.7169040730223,270.9108789640013,270.7169040730223,None,274.5621664298349,None,4444,2022_Nov_28_1134,circle_rotation,2021.2.3,61.01227214519126,
82,48,105,70,"[25,45] degrees",left,-0.4,107,82,clockwise,23,22,,,,,,,,,,,,,0,17,17,37,,,,,,,,,,,,,,,,,278.96342043508776,None,278.96342043508776,None,space,1.3875740080839023,-94.7801629646377,280.3804107370088,None,,,,,,,274.5619490580866,None,274.5619490580866,275.3123391090194,274.5619490580866,275.3123391090194,275.9624622371048,None,275.9624622371048,276.71121749002486,275.9624622371048,276.71121749002486,277.36310934403446,277.56288264808245,277.36310934403446,None,280.8803547958494,None,4444,2022_Nov_28_1134,circle_rotation,2021.2.3,61.01227214519126,
68,146,28,113,"[25,45] degrees",right,0.4,120,146,anticlockwise,-33,-40,,,,,,,,,,,,,0,18,18,119,,,,,,,,,,,,,,,,,285.2815041890135,None,285.2815041890135,None,space,1.8643308560131118,-94.7801629646377,287.15411966107786,None,,,,,,,280.8806640560506,None,280.8806640560506,281.62942792708054,280.8806640560506,281.62942792708054,282.27934343600646,None,282.27934343600646,283.03107462101616,282.27934343600646,283.03107462101616,283.6813579821028,283.88130382006057,283.6813579821028,None,287.6660016388749,None,4444,2022_Nov_28_1134,circle_rotation,2021.2.3,61.01227214519126,
102,155,82,130,"[25,45] degrees",left,-0.4,89,102,anticlockwise,-20,-25,,,,,,,,,,,,,0,19,19,69,,,,,,,,,,,,,,,,,292.0562396340538,None,292.0562396340538,None,space,2.6269786219345406,-94.7801629646377,294.70086280000396,None,,,,,,,287.6656955271028,None,287.6656955271028,288.4160602201009,287.6656955271028,288.4160602201009,289.06627091311384,None,289.06627091311384,289.8163795840228,289.06627091311384,289.8163795840228,290.4577606130624,290.6666023810394,290.4577606130624,None,295.2011586259003,None,4444,2022_Nov_28_1134,circle_rotation,2021.2.3,61.01227214519126,
172,70,136,26,"[25,45] degrees",left,-0.4,168,172,anticlockwise,-36,-44,,,,,,,,,,,,,0,20,20,73,,,,,,,,,,,,,,,,,299.60234659106936,None,299.60234659106936,None,space,4.463074452942237,-94.7801629646377,304.0870164480293,None,,,,,,,295.20130303606857,None,295.20130303606857,295.9502544950228,295.20130303606857,295.9502544950228,296.6015752160456,None,296.6015752160456,297.3516635770211,296.6015752160456,297.3516635770211,298.00200137507636,298.20233633799944,298.00200137507636,None,304.58691961284495,None,4444,2022_Nov_28_1134,circle_rotation,2021.2.3,61.01227214519126,
57,124,13,95,"[25,45] degrees",neutral,-0.4,99,57,anticlockwise,-44,-29,,,,,,,,,,,,,0,21,21,80,,,,,,,,,,,,,,,,,308.9883637520252,None,308.9883637520252,None,space,2.6823506279615685,-94.7801629646377,311.67743911303114,None,,,,,,,304.5869390279986,None,304.5869390279986,305.33710829610936,304.5869390279986,305.33710829610936,305.9875066090608,None,305.9875066090608,306.73652024404146,305.9875066090608,306.73652024404146,307.38816660502926,307.58811030210927,307.38816660502926,None,312.1766075478052,None,4444,2022_Nov_28_1134,circle_rotation,2021.2.3,61.01227214519126,
178,27,151,-8,"[25,45] degrees",right,0.4,14,27,anticlockwise,-35,-27,,,,,,,,,,,,,0,22,22,91,,,,,,,,,,,,,,,,,316.56427907710895,None,316.56427907710895,None,space,3.3187916229944676,-94.7801629646377,319.9080803390825,None,,,,,,,312.170833470067,None,312.170833470067,312.9228322020499,312.170833470067,312.9228322020499,313.572881068103,None,313.572881068103,314.32301433209796,313.572881068103,314.32301433209796,314.9733890100615,315.17285777803045,314.9733890100615,None,320.40771422385006,None,4444,2022_Nov_28_1134,circle_rotation,2021.2.3,61.01227214519126,
5,109,26,152,"[25,45] degrees",left,-0.4,50,5,clockwise,21,43,,,,,,,,,,,,,0,23,23,29,,,,,,,,,,,,,,,,,324.8092172520701,None,324.8092172520701,None,space,3.286037527024746,-94.7801629646377,328.12714599911124,None,,,,,,,320.408468964044,None,320.408468964044,321.15724960609805,320.408468964044,321.15724960609805,321.80715877900366,None,321.80715877900366,322.55899433000013,321.80715877900366,322.55899433000013,323.2090701770503,323.409231837024,323.2090701770503,None,328.62721684785794,None,4444,2022_Nov_28_1134,circle_rotation,2021.2.3,61.01227214519126,
134,70,177,105,"[25,45] degrees",left,-0.4,169,134,clockwise,43,35,,,,,,,,,,,,,0,24,24,17,,,,,,,,,,,,,,,,,333.02864797611255,None,333.02864797611255,None,space,2.4460902960272506,-94.7801629646377,335.4958666890161,None,,,,,,,328.6269837510772,None,328.6269837510772,329.37754661310464,328.6269837510772,329.37754661310464,330.02749316301197,None,330.02749316301197,330.76522626308724,330.02749316301197,330.76522626308724,331.4280775550287,331.6269232040504,331.4280775550287,None,335.9960155699053,None,4444,2022_Nov_28_1134,circle_rotation,2021.2.3,61.01227214519126,
177,26,201,54,"[25,45] degrees",right,0.4,-13,26,clockwise,28,24,,,,,,,,,,,,,0,25,25,43,,,,,,,,,,,,,,,,,340.39730797801167,None,340.39730797801167,None,space,1.86113810504321,-94.7801629646377,342.26964414608665,None,,,,,,,335.99589739204384,None,335.99589739204384,336.734202399035,335.99589739204384,336.734202399035,337.3965323420707,None,337.3965323420707,338.14662588306237,337.3965323420707,338.14662588306237,338.7969072840642,338.99670956109185,338.7969072840642,None,342.7813801868004,None,4444,2022_Nov_28_1134,circle_rotation,2021.2.3,61.01227214519126,
131,10,105,-27,"[25,45] degrees",neutral,-0.4,134,131,anticlockwise,-26,-37,,,,,,,,,,,,,0,26,26,116,,,,,,,,,,,,,,,,,347.18112401501276,None,347.18112401501276,None,space,3.7506642170483246,-94.7801629646377,350.9504152550362,None,,,,,,,342.7814819480991,None,342.7814819480991,343.5315105250338,342.7814819480991,343.5315105250338,344.1816013850039,None,344.1816013850039,344.9319312670268,344.1816013850039,344.9319312670268,345.5833734991029,345.7984254480107,345.5833734991029,None,351.4545769068762,None,4444,2022_Nov_28_1134,circle_rotation,2021.2.3,61.01227214519126,
151,114,178,143,"[25,45] degrees",right,0.4,146,114,clockwise,29,27,,,,,,,,,,,,,0,27,27,19,,,,,,,,,,,,,,,,,355.85063842800446,None,355.85063842800446,None,space,2.235912663047202,-94.7801629646377,358.1189985020319,None,,,,,,,351.4499395870371,None,351.4499395870371,352.1881327350857,351.4499395870371,352.1881327350857,352.8508704020642,None,352.8508704020642,353.60112791205756,352.8508704020642,353.60112791205756,354.2511824640678,354.4512157170102,354.2511824640678,None,358.61907528283774,None,4444,2022_Nov_28_1134,circle_rotation,2021.2.3,61.01227214519126,
153,58,131,30,"[25,45] degrees",right,0.4,71,58,anticlockwise,-28,-22,,,,,,,,,,,,,0,28,28,115,,,,,,,,,,,,,,,,,363.0203936640173,None,363.0203936640173,None,space,2.491122439969331,-94.7801629646377,365.5374512920389,None,,,,,,,358.61907096905634,None,358.61907096905634,359.36938229308,358.61907096905634,359.36938229308,360.0192946350435,None,360.0192946350435,360.7687287280569,360.0192946350435,360.7687287280569,361.41996833402663,361.61830124701373,361.41996833402663,None,366.03790502379417,None,4444,2022_Nov_28_1134,circle_rotation,2021.2.3,61.01227214519126,
3,28,41,62,"[25,45] degrees",neutral,0.4,1,28,clockwise,34,38,,,,,,,,,,,,,0,29,29,26,,,,,,,,,,,,,,,,,370.4379907710245,None,370.4379907710245,None,space,3.9606325359782204,-94.7801629646377,374.42317147611175,None,,,,,,,366.0380606640829,None,366.0380606640829,366.78645193204284,366.0380606640829,366.78645193204284,367.4385031790007,None,367.4385031790007,368.1884219890926,367.4385031790007,368.1884219890926,368.8386361110024,369.0385355150793,368.8386361110024,None,374.9234302938101,None,4444,2022_Nov_28_1134,circle_rotation,2021.2.3,61.01227214519126,
103,27,76,-12,"[25,45] degrees",neutral,-0.4,138,103,anticlockwise,-27,-39,,,,,,,,,,,,,0,30,30,100,,,,,,,,,,,,,,,,,379.32474733307026,None,379.32474733307026,None,space,4.951665187021717,-94.7801629646377,384.29285740002524,None,,,,,,,374.92326373409014,None,374.92326373409014,375.67364695610013,374.92326373409014,375.67364695610013,376.313434161013,None,376.313434161013,377.0611355250003,376.313434161013,377.0611355250003,377.72450809704605,377.92458829202224,377.72450809704605,None,384.7928510548198,None,4444,2022_Nov_28_1134,circle_rotation,2021.2.3,61.01227214519126,
36,161,63,203,"[25,45] degrees",neutral,-0.4,25,36,clockwise,27,42,,,,,,,,,,,,,0,31,31,40,,,,,,,,,,,,,,,,,389.19401127903257,None,389.19401127903257,None,space,3.4742438179673627,-94.7801629646377,392.69539015810005,None,,,,,,,384.7925738970516,None,384.7925738970516,385.54298899311107,384.7925738970516,385.54298899311107,386.18309310707264,None,386.18309310707264,386.9434743520105,386.18309310707264,386.9434743520105,387.5940924800234,387.7939624710707,387.5940924800234,None,393.19546770585004,None,4444,2022_Nov_28_1134,circle_rotation,2021.2.3,61.01227214519126,
149,43,174,66,"[25,45] degrees",neutral,-0.4,128,149,clockwise,25,23,,,,,,,,,,,,,0,32,32,48,,,,,,,,,,,,,,,,,397.59670808608644,None,397.59670808608644,None,space,4.724193525034934,-94.7801629646377,402.3466167370789,None,,,,,,,393.1956697300775,None,393.1956697300775,393.94572757801507,393.1956697300775,393.94572757801507,394.5955744710518,None,394.5955744710518,395.34558410407044,394.5955744710518,395.34558410407044,395.9857561340323,396.17949701601174,395.9857561340323,None,402.8484195368481,None,4444,2022_Nov_28_1134,circle_rotation,2021.2.3,61.01227214519126,
40,134,1,113,"[25,45] degrees",neutral,-0.4,29,40,anticlockwise,-39,-21,,,,,,,,,,,,,0,33,33,92,,,,,,,,,,,,,,,,,407.2480990490876,None,407.2480990490876,None,None,,-94.7801629646377,412.2508860920789,None,,,,,,,402.84824423410464,None,402.84824423410464,403.5985388751142,402.84824423410464,403.5985388751142,404.2484437871026,None,404.2484437871026,404.9984060380375,404.2484437871026,404.9984060380375,405.6486102080671,405.8491176360985,405.6486102080671,None,412.7509757568012,None,4444,2022_Nov_28_1134,circle_rotation,2021.2.3,61.01227214519126,
81,156,123,194,"[25,45] degrees",neutral,-0.4,95,81,clockwise,42,38,,,,,,,,,,,,,0,34,34,0,,,,,,,,,,,,,,,,,417.1411528669996,None,417.1411528669996,None,space,1.3451275390107185,-94.7801629646377,418.5193461390445,None,,,,,,,412.7509421420982,None,412.7509421420982,413.50124128104653,412.7509421420982,413.50124128104653,414.1514606740093,None,414.1514606740093,414.9012056631036,414.1514606740093,414.9012056631036,415.5515096660238,415.73987219808623,415.5515096660238,None,419.0193826068542,None,4444,2022_Nov_28_1134,circle_rotation,2021.2.3,61.01227214519126,
121,163,80,119,"[25,45] degrees",neutral,0.4,161,163,anticlockwise,-44,-41,,,,,,,,,,,,,0,35,35,98,,,,,,,,,,,,,,,,,423.42076707608066,None,423.42076707608066,None,space,0.7579833869822323,-94.7801629646377,424.20415066205896,None,,,,,,,419.0195653400151,None,419.0195653400151,419.76935724308714,419.0195653400151,419.76935724308714,420.41962116002105,None,420.41962116002105,421.16849152208306,420.41962116002105,421.16849152208306,421.8185767910909,422.0076727491105,421.8185767910909,None,424.70400531183697,None,4444,2022_Nov_28_1134,circle_rotation,2021.2.3,61.01227214519126,
57,137,80,159,"[25,45] degrees",neutral,-0.4,18,57,clockwise,23,22,,,,,,,,,,,,,0,36,36,4,,,,,,,,,,,,,,,,,429.10507100401446,None,429.10507100401446,None,None,,-94.7801629646377,434.1064868940739,None,,,,,,,424.7039823840605,None,424.7039823840605,425.4423143391032,424.7039823840605,425.4423143391032,426.10329899110366,None,426.10329899110366,426.84248711308464,426.10329899110366,426.84248711308464,427.50519170903135,427.70512992411386,427.50519170903135,None,434.6071384227951,None,4444,2022_Nov_28_1134,circle_rotation,2021.2.3,61.01227214519126,
53,6,95,26,"[25,45] degrees",left,-0.4,42,53,clockwise,42,20,,,,,,,,,,,,,0,37,37,33,,,,,,,,,,,,,,,,,439.00841629703064,None,439.00841629703064,None,space,0.9878946660319343,-94.7801629646377,440.0250736250309,None,,,,,,,434.60663382103667,None,434.60663382103667,435.3572110690875,434.60663382103667,435.3572110690875,436.0062318680575,None,436.0062318680575,436.757253317046,436.0062318680575,436.757253317046,437.3986094481079,437.60796376201324,437.3986094481079,None,440.52508890280734,None,4444,2022_Nov_28_1134,circle_rotation,2021.2.3,61.01227214519126,
161,67,206,108,"[25,45] degrees",neutral,0.4,25,67,clockwise,41,45,,,,,,,,,,,,,0,38,38,50,,,,,,,,,,,,,,,,,444.92634224309586,None,444.92634224309586,None,space,2.5505758579820395,-94.7801629646377,447.49409123905934,None,,,,,,,440.52517433906905,None,440.52517433906905,441.2744018760277,440.52517433906905,441.2744018760277,441.9152433940908,None,441.9152433940908,442.6762807490304,441.9152433940908,442.6762807490304,443.3261543230619,443.52632508508395,443.3261543230619,None,447.9941120508709,None,4444,2022_Nov_28_1134,circle_rotation,2021.2.3,61.01227214519126,
87,25,42,-17,"[25,45] degrees",neutral,0.4,-15,25,anticlockwise,-42,-45,,,,,,,,,,,,,0,39,39,86,,,,,,,,,,,,,,,,,452.39396592311095,None,452.39396592311095,None,space,3.148945942055434,-94.7801629646377,455.56299606803805,None,,,,,,,447.994183841045,None,447.994183841045,448.74437716207467,447.994183841045,448.74437716207467,449.3940556860762,None,449.3940556860762,450.1446979320608,449.3940556860762,450.1446979320608,450.7937427710276,450.98290937405545,450.7937427710276,None,456.0630511570489,None,4444,2022_Nov_28_1134,circle_rotation,2021.2.3,61.01227214519126,
124,170,90,132,"[25,45] degrees",right,0.4,176,170,anticlockwise,-38,-34,,,,,,,,,,,,,0,40,40,63,,,,,,,,,,,,,,,,,490.4724147100933,None,490.4724147100933,None,space,4.883323102025315,-94.7801629646377,495.37389343301766,None,,,,,,,486.07145421905443,None,486.07145421905443,486.8216057540849,486.07145421905443,486.8216057540849,487.4720152840018,None,487.4720152840018,488.22199677303433,487.4720152840018,488.22199677303433,488.87212068703957,489.072070724098,488.87212068703957,None,495.87399016286946,None,4444,2022_Nov_28_1134,circle_rotation,2021.2.3,61.01227214519126,
136,11,95,-9,"[25,45] degrees",neutral,0.4,-8,11,anticlockwise,-20,-41,,,,,,,,,,,,,0,41,41,114,,,,,,,,,,,,,,,,,500.2751670660218,None,500.2751670660218,None,space,2.0891601860057563,-94.7801629646377,502.39240579807665,None,,,,,,,495.8740105431061,None,495.8740105431061,496.6241511970293,495.8740105431061,496.6241511970293,497.27403806406073,None,497.27403806406073,498.02494556701276,497.27403806406073,498.02494556701276,498.67502792703453,498.8750834490638,498.67502792703453,None,502.89320653782926,None,4444,2022_Nov_28_1134,circle_rotation,2021.2.3,61.01227214519126,
79,28,108,55,"[25,45] degrees",left,-0.4,100,79,clockwise,29,27,,,,,,,,,,,,,0,42,42,9,,,,,,,,,,,,,,,,,507.2936992730247,None,507.2936992730247,None,space,2.2816673470661044,-94.7801629646377,509.59463390510064,None,,,,,,,502.8929261279991,None,502.8929261279991,503.64332153310534,502.8929261279991,503.64332153310534,504.29316176101565,None,504.29316176101565,505.04338303301483,504.29316176101565,505.04338303301483,505.6933335970389,505.89343445410486,505.6933335970389,None,510.0947875809041,None,4444,2022_Nov_28_1134,circle_rotation,2021.2.3,61.01227214519126,
70,97,33,72,"[25,45] degrees",neutral,0.4,132,97,anticlockwise,-25,-37,,,,,,,,,,,,,0,43,43,118,,,,,,,,,,,,,,,,,514.4962338620098,None,514.4962338620098,None,space,4.337657021940686,-94.7801629646377,518.8638691800879,None,,,,,,,510.0949765141122,None,510.0949765141122,510.84512042300776,510.0949765141122,510.84512042300776,511.49470862408634,None,511.49470862408634,512.2448866770137,511.49470862408634,512.2448866770137,512.8957034350606,513.0959053460974,512.8957034350606,None,519.3640843258588,None,4444,2022_Nov_28_1134,circle_rotation,2021.2.3,61.01227214519126,
22,73,2,43,"[25,45] degrees",neutral,-0.4,-1,22,anticlockwise,-20,-30,,,,,,,,,,,,,0,44,44,112,,,,,,,,,,,,,,,,,523.7654669911135,None,523.7654669911135,None,space,4.462199312984012,-94.7801629646377,528.2497074611019,None,,,,,,,519.364017027081,None,519.364017027081,520.114341532113,519.364017027081,520.114341532113,520.7644523200579,None,520.7644523200579,521.5144260181114,520.7644523200579,521.5144260181114,522.1644568940392,522.3645283080405,522.1644568940392,None,528.7499390058335,None,4444,2022_Nov_28_1134,circle_rotation,2021.2.3,61.01227214519126,
99,29,70,-4,"[25,45] degrees",left,-0.4,83,99,anticlockwise,-29,-33,,,,,,,,,,,,,0,45,45,61,,,,,,,,,,,,,,,,,533.1511291780043,None,533.1511291780043,None,space,4.087355706025846,-94.7801629646377,537.2510969160357,None,,,,,,,528.7502305901144,None,528.7502305901144,529.5001741810702,528.7502305901144,529.5001741810702,530.1502513641026,None,530.1502513641026,530.8996608820744,530.1502513641026,530.8996608820744,531.5419478950789,531.7385020341026,531.5419478950789,None,537.7527425788692,None,4444,2022_Nov_28_1134,circle_rotation,2021.2.3,61.01227214519126,
103,25,135,59,"[25,45] degrees",left,-0.4,132,103,clockwise,32,34,,,,,,,,,,,,,0,46,46,49,,,,,,,,,,,,,,,,,542.1431557090255,None,542.1431557090255,None,space,3.6900451349793,-94.7801629646377,545.8549913250608,None,,,,,,,537.7531836980488,None,537.7531836980488,538.50270636403,537.7531836980488,538.50270636403,539.152872389066,None,539.152872389066,539.9030185190495,539.152872389066,539.9030185190495,540.5429100260371,540.7405706830323,540.5429100260371,None,546.3594183718203,None,4444,2022_Nov_28_1134,circle_rotation,2021.2.3,61.01227214519126,
95,145,131,179,"[25,45] degrees",right,0.4,164,145,clockwise,34,36,,,,,,,,,,,,,0,47,47,15,,,,,,,,,,,,,,,,,550.7562458200846,None,550.7562458200846,None,space,2.6822830489836633,-94.7801629646377,553.4572412830312,None,,,,,,,546.3544615590945,None,546.3544615590945,547.1051844630856,546.3544615590945,547.1051844630856,547.7556909820996,None,547.7556909820996,548.5056574960472,547.7556909820996,548.5056574960472,549.1558828121051,549.3559863211121,549.1558828121051,None,553.9566873258561,None,4444,2022_Nov_28_1134,circle_rotation,2021.2.3,61.01227214519126,
18,68,-2,36,"[25,45] degrees",right,0.4,75,68,anticlockwise,-32,-20,,,,,,,,,,,,,0,48,48,107,,,,,,,,,,,,,,,,,558.358595481026,None,558.358595481026,None,None,,-94.7801629646377,563.3598521710373,None,,,,,,,553.9567977100378,None,553.9567977100378,554.7076351240976,553.9567977100378,554.7076351240976,555.3576246791054,None,555.3576246791054,556.1066211680882,555.3576246791054,556.1066211680882,556.7579218260944,556.9569118820364,556.7579218260944,None,563.8599613178637,None,4444,2022_Nov_28_1134,circle_rotation,2021.2.3,61.01227214519126,
104,75,129,103,"[25,45] degrees",neutral,-0.4,87,104,clockwise,25,28,,,,,,,,,,,,,0,49,49,8,,,,,,,,,,,,,,,,,568.2613012110814,None,568.2613012110814,None,space,4.425030721002258,-94.7801629646377,572.7122709910618,None,,,,,,,563.8602101200959,None,563.8602101200959,564.6098701209994,563.8602101200959,564.6098701209994,565.2599944310496,None,565.2599944310496,566.0093980910024,565.2599944310496,566.0093980910024,566.6607260820456,566.8603652120801,566.6607260820456,None,573.2126317268819,None,4444,2022_Nov_28_1134,circle_rotation,2021.2.3,61.01227214519126,
159,90,115,53,"[25,45] degrees",right,0.4,61,90,anticlockwise,-37,-44,,,,,,,,,,,,,0,50,50,71,,,,,,,,,,,,,,,,,577.6139007030288,None,577.6139007030288,None,None,,-94.7801629646377,582.6155652781017,None,,,,,,,573.2125748370308,None,573.2125748370308,573.9630589981098,573.2125748370308,573.9630589981098,574.6130767581053,None,574.6130767581053,575.3629138310207,574.6130767581053,575.3629138310207,576.0134013150819,576.2122543090954,576.0134013150819,None,583.1155228108516,None,4444,2022_Nov_28_1134,circle_rotation,2021.2.3,61.01227214519126,
125,28,145,67,"[25,45] degrees",neutral,-0.4,150,125,clockwise,20,39,,,,,,,,,,,,,0,51,51,36,,,,,,,,,,,,,,,,,587.5168607480591,None,587.5168607480591,None,space,3.866527347941883,-94.7801629646377,591.3996117360657,None,,,,,,,583.1155038060388,None,583.1155038060388,583.8660455840873,583.1155038060388,583.8660455840873,584.5158403071109,None,584.5158403071109,585.2659118450247,584.5158403071109,585.2659118450247,585.9069922770141,586.1150912420126,585.9069922770141,None,591.8997585928416,None,4444,2022_Nov_28_1134,circle_rotation,2021.2.3,61.01227214519126,
147,82,191,107,"[25,45] degrees",neutral,-0.4,102,147,clockwise,44,25,,,,,,,,,,,,,0,52,52,24,,,,,,,,,,,,,,,,,596.291879555094,None,596.291879555094,None,None,,-94.7801629646377,601.3040004470386,None,,,,,,,591.8927038370166,None,591.8927038370166,592.6516976970015,591.8927038370166,592.6516976970015,593.3016559350071,None,593.3016559350071,594.0519858750049,593.3016559350071,594.0519858750049,594.7019474210683,594.9019952120725,594.7019474210683,None,601.8038188488106,None,4444,2022_Nov_28_1134,circle_rotation,2021.2.3,61.01227214519126,
92,47,121,81,"[25,45] degrees",neutral,-0.4,96,92,clockwise,29,34,,,,,,,,,,,,,0,53,53,56,,,,,,,,,,,,,,,,,606.2051259960281,None,606.2051259960281,None,space,1.9068319840589538,-94.7801629646377,608.1391819670098,None,,,,,,,601.802809487097,None,601.802809487097,602.5543389710365,601.802809487097,602.5543389710365,603.2044781330042,None,603.2044781330042,603.9546722570667,603.2044781330042,603.9546722570667,604.6045044180937,604.8046357680578,604.6045044180937,None,608.6396147628664,None,4444,2022_Nov_28_1134,circle_rotation,2021.2.3,61.01227214519126,
55,132,35,110,"[25,45] degrees",neutral,-0.4,57,55,anticlockwise,-20,-22,,,,,,,,,,,,,0,54,54,76,,,,,,,,,,,,,,,,,613.0906479760306,None,613.0906479760306,None,None,,-94.7801629646377,618.0921072490746,None,,,,,,,608.6745795120951,None,608.6745795120951,609.4394206850557,608.6745795120951,609.4394206850557,610.0895671610488,None,610.0895671610488,610.8397781630047,610.0895671610488,610.8397781630047,611.4896004220936,611.6898793180007,611.4896004220936,None,618.5922264058725,None,4444,2022_Nov_28_1134,circle_rotation,2021.2.3,61.01227214519126,
121,86,93,58,"[25,45] degrees",right,0.4,130,86,anticlockwise,-28,-28,,,,,,,,,,,,,0,55,55,103,,,,,,,,,,,,,,,,,622.9933748060139,None,622.9933748060139,None,space,0.48554576199967414,-94.7801629646377,623.5099977850914,None,,,,,,,618.592346714111,None,618.592346714111,619.3419744820567,618.592346714111,619.3419744820567,619.9921943150694,None,619.9921943150694,620.7428323340137,619.9921943150694,620.7428323340137,621.3926575150108,621.5924605081091,621.3926575150108,None,624.0102108478429,None,4444,2022_Nov_28_1134,circle_rotation,2021.2.3,61.01227214519126,
80,166,109,200,"[25,45] degrees",neutral,-0.4,55,80,clockwise,29,34,,,,,,,,,,,,,0,56,56,12,,,,,,,,,,,,,,,,,628.4114693721058,None,628.4114693721058,None,None,,-94.7801629646377,633.4130023010075,None,,,,,,,624.010401666048,None,624.010401666048,624.7602313110838,624.010401666048,624.7602313110838,625.4108699971111,None,625.4108699971111,626.1598336800234,625.4108699971111,626.1598336800234,626.8096557070967,627.0108757010894,626.8096557070967,None,633.9129655808326,None,4444,2022_Nov_28_1134,circle_rotation,2021.2.3,61.01227214519126,
158,4,181,34,"[25,45] degrees",neutral,0.4,-16,4,clockwise,30,23,,,,,,,,,,,,,0,57,57,30,,,,,,,,,,,,,,,,,638.3143553470727,None,638.3143553470727,None,None,,-94.7801629646377,643.3157375560841,None,,,,,,,633.913026740076,None,633.913026740076,634.6633034890983,633.913026740076,634.6633034890983,635.3131105611101,None,635.3131105611101,636.0636593491072,635.3131105611101,636.0636593491072,636.7139034080319,636.9121922230115,636.7139034080319,None,643.8158836378832,None,4444,2022_Nov_28_1134,circle_rotation,2021.2.3,61.01227214519126,
99,127,72,100,"[25,45] degrees",right,0.4,107,127,anticlockwise,-27,-27,,,,,,,,,,,,,0,58,58,75,,,,,,,,,,,,,,,,,648.2172465210315,None,648.2172465210315,None,space,2.733594619901851,-94.7801629646377,650.9676900950726,None,,,,,,,643.8156962330686,None,643.8156962330686,644.5660280950833,643.8156962330686,644.5660280950833,645.2159718560288,None,645.2159718560288,645.9659386100248,645.2159718560288,645.9659386100248,646.6074537740787,646.8044038721127,646.6074537740787,None,651.4723593298229,None,4444,2022_Nov_28_1134,circle_rotation,2021.2.3,61.01227214519126,
22,125,-15,94,"[25,45] degrees",neutral,-0.4,32,22,anticlockwise,-37,-31,,,,,,,,,,,,,0,59,59,88,,,,,,,,,,,,,,,,,655.8690925240517,None,655.8690925240517,None,None,,-94.7801629646377,660.8694908380276,None,,,,,,,651.4665739710908,None,651.4665739710908,652.2058227061061,651.4665739710908,652.2058227061061,652.8681571270572,None,652.8681571270572,653.6182831070619,652.8681571270572,653.6182831070619,654.2687848240603,654.4689021480735,654.2687848240603,None,661.3701442718855,None,4444,2022_Nov_28_1134,circle_rotation,2021.2.3,61.01227214519126,
129,165,104,134,"[25,45] degrees",neutral,-0.4,88,129,anticlockwise,-25,-31,,,,,,,,,,,,,0,60,60,68,,,,,,,,,,,,,,,,,665.7717696160544,None,665.7717696160544,None,None,,-94.7801629646377,670.77355055511,None,,,,,,,661.370622807066,None,661.370622807066,662.1195221290691,661.370622807066,662.1195221290691,662.7711735001067,None,662.7711735001067,663.5214358450612,662.7711735001067,663.5214358450612,664.1714186880272,664.3713257201016,664.1714186880272,None,671.2781300878967,None,4444,2022_Nov_28_1134,circle_rotation,2021.2.3,61.01227214519126,
54,102,28,82,"[25,45] degrees",neutral,-0.4,79,54,anticlockwise,-26,-20,,,,,,,,,,,,,0,61,61,104,,,,,,,,,,,,,,,,,675.6746996350121,None,675.6746996350121,None,None,,-94.7801629646377,680.6761414960492,None,,,,,,,671.2730070760008,None,671.2730070760008,672.0116522531025,671.2730070760008,672.0116522531025,672.6740015860414,None,672.6740015860414,673.4244491510326,672.6740015860414,673.4244491510326,674.0744629340479,674.2741142030573,674.0744629340479,None,681.1807505228905,None,4444,2022_Nov_28_1134,circle_rotation,2021.2.3,61.01227214519126,
98,176,54,146,"[25,45] degrees",left,-0.4,139,98,anticlockwise,-44,-30,,,,,,,,,,,,,0,62,62,113,,,,,,,,,,,,,,,,,685.5783555350499,None,685.5783555350499,None,space,2.237824456067756,-94.7801629646377,687.8447285270086,None,,,,,,,681.1762179160723,None,681.1762179160723,681.9265208980069,681.1762179160723,681.9265208980069,682.5769629180431,None,682.5769629180431,683.3270324330078,682.5769629180431,683.3270324330078,683.9771490540588,684.1768332651118,683.9771490540588,None,688.3449953477946,None,4444,2022_Nov_28_1134,circle_rotation,2021.2.3,61.01227214519126,
31,97,6,72,"[25,45] degrees",neutral,0.4,104,97,anticlockwise,-25,-25,,,,,,,,,,,,,0,63,63,70,,,,,,,,,,,,,,,,,692.7463388820179,None,692.7463388820179,None,None,,-94.7801629646377,697.7476270050975,None,,,,,,,688.3449942400912,None,688.3449942400912,689.0951608041069,688.3449942400912,689.0951608041069,689.7452601410914,None,689.7452601410914,690.4957621020731,689.7452601410914,690.4957621020731,691.1457093830686,691.333771687001,691.1457093830686,None,698.2477829968673,None,4444,2022_Nov_28_1134,circle_rotation,2021.2.3,61.01227214519126,
115,31,80,9,"[25,45] degrees",right,0.4,19,31,anticlockwise,-22,-35,,,,,,,,,,,,,0,64,64,79,,,,,,,,,,,,,,,,,702.6491352850571,None,702.6491352850571,None,None,,-94.7801629646377,707.6505543610547,None,,,,,,,698.2476779780118,None,698.2476779780118,698.9977905860869,698.2476779780118,698.9977905860869,699.6480844250182,None,699.6480844250182,700.397986563039,699.6480844250182,700.397986563039,701.0482347300276,701.2473647861043,701.0482347300276,None,708.1505471728858,None,4444,2022_Nov_28_1134,circle_rotation,2021.2.3,61.01227214519126,
35,92,59,114,"[25,45] degrees",neutral,-0.4,38,35,clockwise,24,22,,,,,,,,,,,,,0,65,65,28,,,,,,,,,,,,,,,,,712.5519703680184,None,712.5519703680184,None,space,0.7449901159852743,-94.7801629646377,713.3186574870488,None,,,,,,,708.1507422371069,None,708.1507422371069,708.9009750020923,708.1507422371069,708.9009750020923,709.5506443290506,None,709.5506443290506,710.3003926400561,709.5506443290506,710.3003926400561,710.951288431068,711.1513004160952,710.951288431068,None,713.8188197648967,None,4444,2022_Nov_28_1134,circle_rotation,2021.2.3,61.01227214519126,
14,127,36,161,"[25,45] degrees",left,-0.4,52,14,clockwise,22,34,,,,,,,,,,,,,0,66,66,57,,,,,,,,,,,,,,,,,718.2200887980871,None,718.2200887980871,None,None,,-94.7801629646377,723.2211523370352,None,,,,,,,713.8187477090396,None,713.8187477090396,714.5688429920701,713.8187477090396,714.5688429920701,715.2188582970994,None,715.2188582970994,715.968021211098,715.2188582970994,715.968021211098,716.6181062030373,716.8062350020045,716.6181062030373,None,723.721192275884,None,4444,2022_Nov_28_1134,circle_rotation,2021.2.3,61.01227214519126,
26,73,67,99,"[25,45] degrees",left,-0.4,-10,26,clockwise,41,26,,,,,,,,,,,,,0,67,67,5,,,,,,,,,,,,,,,,,728.1225844650762,None,728.1225844650762,None,space,2.285586277022958,-94.7801629646377,730.4402886950411,None,,,,,,,723.7212447480997,None,723.7212447480997,724.4716635670047,723.7212447480997,724.4716635670047,725.1216879180865,None,725.1216879180865,725.8597906290088,725.1216879180865,725.8597906290088,726.5119528101059,726.7223825070541,726.5119528101059,None,730.9444221828714,None,4444,2022_Nov_28_1134,circle_rotation,2021.2.3,61.01227214519126,
56,78,82,113,"[25,45] degrees",right,0.4,57,78,clockwise,35,26,,,,,,,,,,,,,0,68,68,3,,,,,,,,,,,,,,,,,735.3415590390796,None,735.3415590390796,None,space,2.3000710170017555,-94.7801629646377,737.6589283960639,None,,,,,,,730.9399434870575,None,730.9399434870575,731.6782449650345,730.9399434870575,731.6782449650345,732.3297914540162,None,732.3297914540162,733.0910004560137,732.3297914540162,733.0910004560137,733.7410811950685,733.9411457820097,733.7410811950685,None,738.158961457794,None,4444,2022_Nov_28_1134,circle_rotation,2021.2.3,61.01227214519126,
98,2,138,40,"[25,45] degrees",left,-0.4,57,98,clockwise,40,38,,,,,,,,,,,,,0,69,69,1,,,,,,,,,,,,,,,,,742.5603563881014,None,742.5603563881014,None,space,0.6157427859725431,-94.7801629646377,743.193604722037,None,,,,,,,738.1587643451057,None,738.1587643451057,738.909364918014,738.1587643451057,738.909364918014,739.5591709290165,None,739.5591709290165,740.3093857890926,739.5591709290165,740.3093857890926,740.9596211910248,741.1587111480767,740.9596211910248,None,743.6939614958944,None,4444,2022_Nov_28_1134,circle_rotation,2021.2.3,61.01227214519126,
178,33,154,-2,"[25,45] degrees",left,-0.4,189,178,anticlockwise,-24,-35,,,,,,,,,,,,,0,70,70,101,,,,,,,,,,,,,,,,,748.0951917651109,None,748.0951917651109,None,None,,-94.7801629646377,753.0967122840229,None,,,,,,,743.6941768490942,None,743.6941768490942,744.4440155350603,743.6941768490942,744.4440155350603,745.0933207180351,None,745.0933207180351,745.8443799830275,745.0933207180351,745.8443799830275,746.4836714750854,746.6822019950487,746.4836714750854,None,753.5966415738337,None,4444,2022_Nov_28_1134,circle_rotation,2021.2.3,61.01227214519126,
46,96,24,58,"[25,45] degrees",right,0.4,116,96,anticlockwise,-38,-22,,,,,,,,,,,,,0,71,71,67,,,,,,,,,,,,,,,,,757.9983349130489,None,757.9983349130489,None,None,,-94.7801629646377,762.9992246750044,None,,,,,,,753.5964425870916,None,753.5964425870916,754.3465528680244,753.5964425870916,754.3465528680244,754.9967835081043,None,754.9967835081043,755.7467388620134,754.9967835081043,755.7467388620134,756.3876806320623,756.596135331085,756.3876806320623,None,763.499408499815,None,4444,2022_Nov_28_1134,circle_rotation,2021.2.3,61.01227214519126,
25,114,62,141,"[25,45] degrees",right,0.4,76,114,clockwise,27,37,,,,,,,,,,,,,0,72,72,35,,,,,,,,,,,,,,,,,767.9006960151019,None,767.9006960151019,None,space,0.891229082015343,-94.7801629646377,768.8176718701143,None,,,,,,,763.4995130660245,None,763.4995130660245,764.2494429600192,763.4995130660245,764.2494429600192,764.8988390050363,None,764.8988390050363,765.649363852106,764.8988390050363,765.649363852106,766.3002655130113,766.4990586710628,766.3002655130113,None,769.3174317188211,None,4444,2022_Nov_28_1134,circle_rotation,2021.2.3,61.01227214519126,
161,23,134,-6,"[25,45] degrees",neutral,0.4,-2,23,anticlockwise,-29,-27,,,,,,,,,,,,,0,73,73,82,,,,,,,,,,,,,,,,,773.7184606040828,None,773.7184606040828,None,space,3.0381141990656033,-94.7801629646377,776.7863959880779,None,,,,,,,769.3174092540285,None,769.3174092540285,770.0676609210204,769.3174092540285,770.0676609210204,770.7180548550095,None,770.7180548550095,771.4681860430865,770.7180548550095,771.4681860430865,772.1183000840247,772.3182520470582,772.1183000840247,None,777.291006961849,None,4444,2022_Nov_28_1134,circle_rotation,2021.2.3,61.01227214519126,
39,139,68,170,"[25,45] degrees",neutral,0.4,157,139,clockwise,31,29,,,,,,,,,,,,,0,74,74,14,,,,,,,,,,,,,,,,,781.6877861320972,None,781.6877861320972,None,space,1.6163327809190378,-94.7801629646377,783.3217343540164,None,,,,,,,777.2851555610541,None,777.2851555610541,778.0368787900079,777.2851555610541,778.0368787900079,778.6872994800797,None,778.6872994800797,779.4372829460772,778.6872994800797,779.4372829460772,780.087148332037,780.2871760251,780.087148332037,None,783.821842426795,None,4444,2022_Nov_28_1134,circle_rotation,2021.2.3,61.01227214519126,
119,14,87,-13,"[25,45] degrees",left,-0.4,135,119,anticlockwise,-32,-27,,,,,,,,,,,,,0,75,75,109,,,,,,,,,,,,,,,,,788.2231121510267,None,788.2231121510267,None,None,,-94.7801629646377,793.224808128085,None,,,,,,,783.8217724841088,None,783.8217724841088,784.5719445560826,783.8217724841088,784.5719445560826,785.2218700230587,None,785.2218700230587,785.9724530860549,785.2218700230587,785.9724530860549,786.6223370510852,786.8104194210609,786.6223370510852,None,793.7250841898028,None,4444,2022_Nov_28_1134,circle_rotation,2021.2.3,61.01227214519126,
138,86,100,41,"[25,45] degrees",left,-0.4,155,138,anticlockwise,-38,-45,,,,,,,,,,,,,0,76,76,85,,,,,,,,,,,,,,,,,798.1260439261096,None,798.1260439261096,None,space,3.2674509109929204,-94.7801629646377,801.409737849026,None,,,,,,,793.7249300660333,None,793.7249300660333,794.4746838430874,793.7249300660333,794.4746838430874,795.1148095270619,None,795.1148095270619,795.8751554900082,795.1148095270619,795.8751554900082,796.5253777960315,796.7237560760695,796.5253777960315,None,801.9136432499042,None,4444,2022_Nov_28_1134,circle_rotation,2021.2.3,61.01227214519126,
12,97,-17,52,"[25,45] degrees",neutral,0.4,82,97,anticlockwise,-45,-29,,,,,,,,,,,,,0,77,77,94,,,,,,,,,,,,,,,,,806.3114181110868,None,806.3114181110868,None,space,3.4518321600044146,-94.7801629646377,809.7953289650613,None,,,,,,,801.9086844311096,None,801.9086844311096,802.6605315390043,801.9086844311096,802.6605315390043,803.310665390105,None,803.310665390105,804.0606581220636,803.310665390105,804.0606581220636,804.7108482250478,804.9108902710723,804.7108482250478,None,810.2954632678418,None,4444,2022_Nov_28_1134,circle_rotation,2021.2.3,61.01227214519126,
135,47,93,14,"[25,45] degrees",left,-0.4,137,135,anticlockwise,-42,-33,,,,,,,,,,,,,0,78,78,89,,,,,,,,,,,,,,,,,814.696875186055,None,814.696875186055,None,None,,-94.7801629646377,819.7151217220817,None,,,,,,,810.2956208740361,None,810.2956208740361,811.045722849085,810.2956208740361,811.045722849085,811.6858369210968,None,811.6858369210968,812.4342822920298,811.6858369210968,812.4342822920298,813.0966442560311,813.2967059221119,813.0966442560311,None,820.214951873885,None,4444,2022_Nov_28_1134,circle_rotation,2021.2.3,61.01227214519126,
62,177,86,200,"[25,45] degrees",right,0.4,180,177,clockwise,23,24,,,,,,,,,,,,,0,79,79,7,,,,,,,,,,,,,,,,,824.6165075650206,None,824.6165075650206,None,None,,-94.7801629646377,829.6179270891007,None,,,,,,,820.2149729951052,None,820.2149729951052,820.9654219120275,820.2149729951052,820.9654219120275,821.6049642380094,None,821.6049642380094,822.3536371251103,821.6049642380094,822.3536371251103,823.0164530470502,823.2162464100402,823.0164530470502,None,830.1092026490951,None,4444,2022_Nov_28_1134,circle_rotation,2021.2.3,61.01227214519126,
57,149,26,115,"[25,45] degrees",neutral,0.4,174,149,anticlockwise,-34,-31,,,,,,,,,,,,,0,80,80,106,,,,,,,,,,,,,,,,,864.5107962980401,None,864.5107962980401,None,space,2.761744608054869,-94.7801629646377,867.2939820040483,None,,,,,,,860.1096151260426,None,860.1096151260426,860.8597760120174,860.1096151260426,860.8597760120174,861.5100558750564,None,861.5100558750564,862.2600137090776,861.5100558750564,862.2600137090776,862.9106244851137,863.1105130140204,862.9106244851137,None,867.795429681905,None,4444,2022_Nov_28_1134,circle_rotation,2021.2.3,61.01227214519126,
35,171,71,205,"[25,45] degrees",left,-0.4,62,35,clockwise,36,34,,,,,,,,,,,,,0,81,81,21,,,,,,,,,,,,,,,,,872.1961532490095,None,872.1961532490095,None,space,2.9730915270047262,-94.7801629646377,875.1971836310113,None,,,,,,,867.79539316101,None,867.79539316101,868.5455493340269,867.79539316101,868.5455493340269,869.1956348330714,None,869.1956348330714,869.9457349680597,869.1956348330714,869.9457349680597,870.59580710507,870.7961473710602,870.59580710507,None,875.6974927338422,None,4444,2022_Nov_28_1134,circle_rotation,2021.2.3,61.01227214519126,
127,12,155,35,"[25,45] degrees",neutral,0.4,33,12,clockwise,23,28,,,,,,,,,,,,,0,82,82,46,,,,,,,,,,,,,,,,,880.0984803331085,None,880.0984803331085,None,None,,-94.7801629646377,885.0999307630118,None,,,,,,,875.6973709560698,None,875.6973709560698,876.4474735601107,875.6973709560698,876.4474735601107,877.097342920024,None,877.097342920024,877.8482127099996,877.097342920024,877.8482127099996,878.4983109900495,878.698370755068,878.4983109900495,None,885.6000006648362,None,4444,2022_Nov_28_1134,circle_rotation,2021.2.3,61.01227214519126,
36,69,15,46,"[25,45] degrees",right,0.4,43,69,anticlockwise,-23,-21,,,,,,,,,,,,,0,83,83,87,,,,,,,,,,,,,,,,,890.0016238290118,None,890.0016238290118,None,None,,-94.7801629646377,895.0024621980265,None,,,,,,,885.5991673850222,None,885.5991673850222,886.3503610320622,885.5991673850222,886.3503610320622,886.9996426230064,None,886.9996426230064,887.7509826211026,886.9996426230064,887.7509826211026,888.4013859810075,888.6010936310049,888.4013859810075,None,895.5031961808097,None,4444,2022_Nov_28_1134,circle_rotation,2021.2.3,61.01227214519126,
64,135,29,114,"[25,45] degrees",right,0.4,170,135,anticlockwise,-21,-35,,,,,,,,,,,,,0,84,84,83,,,,,,,,,,,,,,,,,899.9041087430669,None,899.9041087430669,None,None,,-94.7801629646377,904.9057903341018,None,,,,,,,895.5027880039997,None,895.5027880039997,896.2408990190597,895.5027880039997,896.2408990190597,896.9034856640501,None,896.9034856640501,897.6538655910408,896.9034856640501,897.6538655910408,898.3036912370007,898.5041661630385,898.3036912370007,None,905.4054881048039,None,4444,2022_Nov_28_1134,circle_rotation,2021.2.3,61.01227214519126,
78,135,101,173,"[25,45] degrees",neutral,0.4,91,135,clockwise,38,23,,,,,,,,,,,,,0,85,85,22,,,,,,,,,,,,,,,,,909.8072119880235,None,909.8072119880235,None,None,,-94.7801629646377,914.808338490082,None,,,,,,,905.4056416050298,None,905.4056416050298,906.1561906130519,905.4056416050298,906.1561906130519,906.7957422001055,None,906.7957422001055,907.5565510001034,906.7957422001055,907.5565510001034,908.2067337910412,908.4069505580701,908.2067337910412,None,915.3086178198107,None,4444,2022_Nov_28_1134,circle_rotation,2021.2.3,61.01227214519126,
56,178,36,149,"[25,45] degrees",left,-0.4,62,56,anticlockwise,-20,-29,,,,,,,,,,,,,0,86,86,117,,,,,,,,,,,,,,,,,919.7095643770881,None,919.7095643770881,None,space,1.910266579943709,-94.7801629646377,921.6323871460045,None,,,,,,,915.3084425870329,None,915.3084425870329,916.0580226930324,915.3084425870329,916.0580226930324,916.6980944890529,None,916.6980944890529,917.4409393970855,916.6980944890529,917.4409393970855,918.1092525210697,918.3094431940699,918.1092525210697,None,922.1425368258613,None,4444,2022_Nov_28_1134,circle_rotation,2021.2.3,61.01227214519126,
39,153,79,191,"[25,45] degrees",left,-0.4,20,39,clockwise,40,38,,,,,,,,,,,,,0,87,87,41,,,,,,,,,,,,,,,,,926.5339660410536,None,926.5339660410536,None,None,,-94.7801629646377,931.5453848170582,None,,,,,,,922.1351155710872,None,922.1351155710872,922.8941338020377,922.1351155710872,922.8941338020377,923.5444593291031,None,923.5444593291031,924.2942602430703,923.5444593291031,924.2942602430703,924.9446113660233,925.144451579079,924.9446113660233,None,932.0465292568667,None,4444,2022_Nov_28_1134,circle_rotation,2021.2.3,61.01227214519126,
105,76,75,34,"[25,45] degrees",neutral,0.4,67,76,anticlockwise,-42,-30,,,,,,,,,,,,,0,88,88,74,,,,,,,,,,,,,,,,,936.4381965360371,None,936.4381965360371,None,space,2.0108075890457258,-94.7801629646377,938.4820186250145,None,,,,,,,932.0463375920663,None,932.0463375920663,932.7972986530513,932.0463375920663,932.7972986530513,933.447247941047,None,933.447247941047,934.1974867740646,933.447247941047,934.1974867740646,934.8473025710555,935.0473325810162,934.8473025710555,None,938.9819834908819,None,4444,2022_Nov_28_1134,circle_rotation,2021.2.3,61.01227214519126,
53,157,92,190,"[25,45] degrees",left,-0.4,81,53,clockwise,39,33,,,,,,,,,,,,,0,89,89,45,,,,,,,,,,,,,,,,,943.3832872790517,None,943.3832872790517,None,None,,-94.7801629646377,948.3849483140511,None,,,,,,,938.9819886611076,None,938.9819886611076,939.7319164000219,938.9819886611076,939.7319164000219,940.3811989690876,None,940.3811989690876,941.1204778550891,940.3811989690876,941.1204778550891,941.7826728320215,941.9826862940099,941.7826728320215,None,948.8847546108416,None,4444,2022_Nov_28_1134,circle_rotation,2021.2.3,61.01227214519126,
13,130,-13,88,"[25,45] degrees",left,-0.4,-15,13,anticlockwise,-26,-42,,,,,,,,,,,,,0,90,90,105,,,,,,,,,,,,,,,,,953.2860424920218,None,953.2860424920218,None,None,,-94.7801629646377,958.2875708070351,None,,,,,,,948.8848723880947,None,948.8848723880947,949.6348714870401,948.8848723880947,949.6348714870401,950.2848282210762,None,950.2848282210762,951.0236826670589,950.2848282210762,951.0236826670589,951.675232481095,951.8731625630753,951.675232481095,None,958.787586187839,None,4444,2022_Nov_28_1134,circle_rotation,2021.2.3,61.01227214519126,
115,42,147,69,"[25,45] degrees",neutral,0.4,80,42,clockwise,27,32,,,,,,,,,,,,,0,91,91,10,,,,,,,,,,,,,,,,,963.1889062930131,None,963.1889062930131,None,None,,-94.7801629646377,968.1902255120222,None,,,,,,,958.7877160150092,None,958.7877160150092,959.5376925360179,958.7877160150092,959.5376925360179,960.1881285920972,None,960.1881285920972,960.9382956300396,960.1881285920972,960.9382956300396,961.5868007980753,961.776005776017,961.5868007980753,None,968.6902221738244,None,4444,2022_Nov_28_1134,circle_rotation,2021.2.3,61.01227214519126,
149,113,181,141,"[25,45] degrees",left,-0.4,106,149,clockwise,32,28,,,,,,,,,,,,,0,92,92,13,,,,,,,,,,,,,,,,,973.0915403100662,None,973.0915403100662,None,None,,-94.7801629646377,978.0930246190401,None,,,,,,,968.6906634831103,None,968.6906634831103,969.4403698670212,968.6906634831103,969.4403698670212,970.0904793461086,None,970.0904793461086,970.8406152180396,970.0904793461086,970.8406152180396,971.4824254610576,971.678504940006,971.4824254610576,None,978.5928654938587,None,4444,2022_Nov_28_1134,circle_rotation,2021.2.3,61.01227214519126,
178,150,200,175,"[25,45] degrees",right,0.4,185,150,clockwise,25,22,,,,,,,,,,,,,0,93,93,55,,,,,,,,,,,,,,,,,982.9943924000254,None,982.9943924000254,None,None,,-94.7801629646377,987.9957946951035,None,,,,,,,978.5930554110091,None,978.5930554110091,979.3432922700886,978.5930554110091,979.3432922700886,979.9932724630926,None,979.9932724630926,980.7438721921062,979.9932724630926,980.7438721921062,981.3927970440127,981.5935406310018,981.3927970440127,None,988.4958819388528,None,4444,2022_Nov_28_1134,circle_rotation,2021.2.3,61.01227214519126,
130,80,167,120,"[25,45] degrees",neutral,-0.4,118,130,clockwise,37,40,,,,,,,,,,,,,0,94,94,44,,,,,,,,,,,,,,,,,992.8972918100189,None,992.8972918100189,None,None,,-94.7801629646377,997.8987533710897,None,,,,,,,988.49604701309,None,988.49604701309,989.2463025640463,988.49604701309,989.2463025640463,989.896201463067,None,989.896201463067,990.6463523830753,989.896201463067,990.6463523830753,991.2962436190573,991.4965165790636,991.2962436190573,None,998.3987352488446,None,4444,2022_Nov_28_1134,circle_rotation,2021.2.3,61.01227214519126,
78,163,111,190,"[25,45] degrees",right,0.4,156,163,clockwise,27,33,,,,,,,,,,,,,0,95,95,39,,,,,,,,,,,,,,,,,1002.7999037071131,None,1002.7999037071131,None,space,2.596336213988252,-94.7801629646377,1005.4173683880363,None,,,,,,,998.398625962087,None,998.398625962087,999.1489451850066,998.398625962087,999.1489451850066,999.7991685400484,None,999.7991685400484,1000.5487722740509,999.7991685400484,1000.5487722740509,1001.1982968311058,1001.3872560720192,1001.1982968311058,None,1005.9171597428037,None,4444,2022_Nov_28_1134,circle_rotation,2021.2.3,61.01227214519126,
109,178,137,198,"[25,45] degrees",neutral,0.4,159,178,clockwise,20,28,,,,,,,,,,,,,0,96,96,54,,,,,,,,,,,,,,,,,1010.3187666221056,None,1010.3187666221056,None,None,,-94.7801629646377,1015.3200301860925,None,,,,,,,1005.9175480820704,None,1005.9175480820704,1006.6676043650368,1005.9175480820704,1006.6676043650368,1007.3177987181116,None,1007.3177987181116,1008.0682919090614,1007.3177987181116,1008.0682919090614,1008.7182132060407,1008.9181478261016,1008.7182132060407,None,1015.8201240248861,None,4444,2022_Nov_28_1134,circle_rotation,2021.2.3,61.01227214519126,
153,15,113,-9,"[25,45] degrees",neutral,0.4,-1,15,anticlockwise,-24,-40,,,,,,,,,,,,,0,97,97,110,,,,,,,,,,,,,,,,,1020.221376047004,None,1020.221376047004,None,None,,-94.7801629646377,1025.222413575044,None,,,,,,,1015.8199168480933,None,1015.8199168480933,1016.5699556880863,1015.8199168480933,1016.5699556880863,1017.2100035260664,None,1017.2100035260664,1017.9709150040289,1017.2100035260664,1017.9709150040289,1018.6211432270939,1018.8211958780885,1018.6211432270939,None,1025.723158159887,None,4444,2022_Nov_28_1134,circle_rotation,2021.2.3,61.01227214519126,
33,133,13,91,"[25,45] degrees",right,0.4,131,133,anticlockwise,-42,-20,,,,,,,,,,,,,0,98,98,95,,,,,,,,,,,,,,,,,1030.1240551010706,None,1030.1240551010706,None,None,,-94.7801629646377,1035.1253609170672,None,,,,,,,1025.7227417860413,None,1025.7227417860413,1026.4718888680218,1025.7227417860413,1026.4718888680218,1027.112768639112,None,1027.112768639112,1027.8735838891007,1027.112768639112,1027.8735838891007,1028.5237023720983,1028.7239780370146,1028.5237023720983,None,1035.6259039538097,None,4444,2022_Nov_28_1134,circle_rotation,2021.2.3,61.01227214519126,
89,131,53,86,"[25,45] degrees",neutral,0.4,162,131,anticlockwise,-45,-36,,,,,,,,,,,,,0,99,99,78,,,,,,,,,,,,,,,,,1040.026834894088,None,1040.026834894088,None,space,4.450845877989195,-94.7801629646377,1044.4949089980219,None,,,,,,,1035.6257723190356,None,1035.6257723190356,1036.3638287590584,1035.6257723190356,1036.3638287590584,1037.0248308900045,None,1037.0248308900045,1037.7763984911144,1037.0248308900045,1037.7763984911144,1038.4264797050273,1038.6266945630778,1038.4264797050273,None,1044.9948149498202,None,4444,2022_Nov_28_1134,circle_rotation,2021.2.3,61.01227214519126,
155,0,187,38,"[25,45] degrees",neutral,0.4,-19,0,clockwise,38,32,,,,,,,,,,,,,0,100,100,2,,,,,,,,,,,,,,,,,1049.396166526014,None,1049.396166526014,None,None,,-94.7801629646377,1054.3977675460046,None,,,,,,,1044.994844069006,None,1044.994844069006,1045.7450333390152,1044.994844069006,1045.7450333390152,1046.395324673038,None,1046.395324673038,1047.1454866590211,1046.395324673038,1047.1454866590211,1047.7959796270588,1047.996133083012,1047.7959796270588,None,1054.897623587877,None,4444,2022_Nov_28_1134,circle_rotation,2021.2.3,61.01227214519126,
66,169,98,189,"[25,45] degrees",right,0.4,186,169,clockwise,20,32,,,,,,,,,,,,,0,101,101,11,,,,,,,,,,,,,,,,,1059.2993522700854,None,1059.2993522700854,None,None,,-94.7801629646377,1064.30049973703,None,,,,,,,1054.897565283114,None,1054.897565283114,1055.6359392720042,1054.897565283114,1055.6359392720042,1056.2979062000522,None,1056.2979062000522,1057.0483350370778,1056.2979062000522,1057.0483350370778,1057.6987506480655,1057.899006607011,1057.6987506480655,None,1064.8004028188413,None,4444,2022_Nov_28_1134,circle_rotation,2021.2.3,61.01227214519126,
140,29,166,71,"[25,45] degrees",neutral,0.4,50,29,clockwise,42,26,,,,,,,,,,,,,0,102,102,18,,,,,,,,,,,,,,,,,1069.2017884310335,None,1069.2017884310335,None,None,,-94.7801629646377,1074.2032027930254,None,,,,,,,1064.8005535590928,None,1064.8005535590928,1065.5509337100666,1064.8005535590928,1065.5509337100666,1066.1904752250994,None,1066.1904752250994,1066.9330098630162,1066.1904752250994,1066.9330098630162,1067.6013543209992,1067.8016091550235,1067.6013543209992,None,1074.7032459378358,None,4444,2022_Nov_28_1134,circle_rotation,2021.2.3,61.01227214519126,
58,114,90,155,"[25,45] degrees",neutral,0.4,85,114,clockwise,41,32,,,,,,,,,,,,,0,103,103,34,,,,,,,,,,,,,,,,,1079.1044998930302,None,1079.1044998930302,None,None,,-94.7801629646377,1084.1060685151024,None,,,,,,,1074.7032567100832,None,1074.7032567100832,1075.4533437960781,1074.7032567100832,1075.4533437960781,1076.102667285013,None,1076.102667285013,1076.841139779077,1076.102667285013,1076.841139779077,1077.4934947090223,1077.7046302390518,1077.4934947090223,None,1084.6063382428954,None,4444,2022_Nov_28_1134,circle_rotation,2021.2.3,61.01227214519126,
75,39,108,65,"[25,45] degrees",neutral,-0.4,97,75,clockwise,33,26,,,,,,,,,,,,,0,104,104,16,,,,,,,,,,,,,,,,,1089.0075424590614,None,1089.0075424590614,None,None,,-94.7801629646377,1094.0091890160693,None,,,,,,,1084.606360387057,None,1084.606360387057,1085.3564781070454,1084.606360387057,1085.3564781070454,1085.996004905086,None,1085.996004905086,1086.7444658000022,1085.996004905086,1086.7444658000022,1087.396196456044,1087.6073067110265,1087.396196456044,None,1094.5088329959078,None,4444,2022_Nov_28_1134,circle_rotation,2021.2.3,61.01227214519126,
111,134,71,107,"[25,45] degrees",right,0.4,143,134,anticlockwise,-27,-40,,,,,,,,,,,,,0,105,105,111,,,,,,,,,,,,,,,,,1098.9103680660482,None,1098.9103680660482,None,None,,-94.7801629646377,1103.9117437720997,None,,,,,,,1094.5089930311078,None,1094.5089930311078,1095.25891950808,1094.5089930311078,1095.25891950808,1095.909380489029,None,1095.909380489029,1096.658548830077,1095.909380489029,1096.658548830077,1097.3096205960028,1097.509599465062,1097.3096205960028,None,1104.4117232018732,None,4444,2022_Nov_28_1134,circle_rotation,2021.2.3,61.01227214519126,
70,142,34,106,"[25,45] degrees",neutral,0.4,176,142,anticlockwise,-36,-36,,,,,,,,,,,,,0,106,106,102,,,,,,,,,,,,,,,,,1108.8127549160272,None,1108.8127549160272,None,space,2.3195646159583703,-94.7801629646377,1111.1536174420035,None,,,,,,,1104.4118386610644,None,1104.4118386610644,1105.161971412017,1104.4118386610644,1105.161971412017,1105.812190377037,None,1105.812190377037,1106.5611147930613,1105.812190377037,1106.5611147930613,1107.2034971780377,1107.399874612107,1107.2034971780377,None,1111.6636327467975,None,4444,2022_Nov_28_1134,circle_rotation,2021.2.3,61.01227214519126,
32,102,74,136,"[25,45] degrees",right,0.4,144,102,clockwise,34,42,,,,,,,,,,,,,0,107,107,31,,,,,,,,,,,,,,,,,1116.0648018580396,None,1116.0648018580396,None,None,,-94.7801629646377,1121.0722665800713,None,,,,,,,1111.6628395550651,None,1111.6628395550651,1112.4137894010637,1111.6628395550651,1112.4137894010637,1113.064345224062,None,1113.064345224062,1113.814538167091,1113.064345224062,1113.814538167091,1114.464595120051,1114.6645229840651,1114.464595120051,None,1121.5818016488454,None,4444,2022_Nov_28_1134,circle_rotation,2021.2.3,61.01227214519126,
49,9,11,-32,"[25,45] degrees",neutral,-0.4,23,49,anticlockwise,-38,-41,,,,,,,,,,,,,0,108,108,96,,,,,,,,,,,,,,,,,1125.9758199231,None,1125.9758199231,None,None,,-94.7801629646377,1130.9858643910848,None,,,,,,,1121.574842287111,None,1121.574842287111,1122.32135444507,1121.574842287111,1122.32135444507,1122.983761480078,None,1122.983761480078,1123.7339797239983,1122.983761480078,1123.7339797239983,1124.38398847403,1124.5840587411076,1124.38398847403,None,1131.4901118938694,None,4444,2022_Nov_28_1134,circle_rotation,2021.2.3,61.01227214519126,
171,51,203,83,"[25,45] degrees",neutral,0.4,24,51,clockwise,32,32,,,,,,,,,,,,,0,109,109,6,,,,,,,,,,,,,,,,,1135.8868993100477,None,1135.8868993100477,None,None,,-94.7801629646377,1140.888493405073,None,,,,,,,1131.4844805110479,None,1131.4844805110479,1132.2235107020242,1131.4844805110479,1132.2235107020242,1132.8865756040905,None,1132.8865756040905,1133.636526954011,1132.8865756040905,1133.636526954011,1134.286523650051,1134.4866884020157,1134.286523650051,None,1141.3875852548633,None,4444,2022_Nov_28_1134,circle_rotation,2021.2.3,61.01227214519126,
1,129,-32,94,"[25,45] degrees",neutral,0.4,104,129,anticlockwise,-35,-33,,,,,,,,,,,,,0,110,110,66,,,,,,,,,,,,,,,,,1145.7889018220594,None,1145.7889018220594,None,None,,-94.7801629646377,1150.791217100108,None,,,,,,,1141.380665554083,None,1141.380665554083,1142.1374894020846,1141.380665554083,1142.1374894020846,1142.7892069000518,None,1142.7892069000518,1143.5397568200715,1142.7892069000518,1143.5397568200715,1144.1891619170783,1144.3896513560321,1144.1891619170783,None,1151.2905773068894,None,4444,2022_Nov_28_1134,circle_rotation,2021.2.3,61.01227214519126,
116,162,82,130,"[25,45] degrees",left,-0.4,135,116,anticlockwise,-34,-32,,,,,,,,,,,,,0,111,111,65,,,,,,,,,,,,,,,,,1155.683973240084,None,1155.683973240084,None,None,,-94.7801629646377,1160.69457874808,None,,,,,,,1151.2839625180932,None,1151.2839625180932,1152.0416450230405,1151.2839625180932,1152.0416450230405,1152.6921539620962,None,1152.6921539620962,1153.4424114431022,1152.6921539620962,1153.4424114431022,1154.0923555630725,1154.2924284160836,1154.0923555630725,None,1161.1939558078418,None,4444,2022_Nov_28_1134,circle_rotation,2021.2.3,61.01227214519126,
85,125,108,165,"[25,45] degrees",right,0.4,125,125,clockwise,40,23,,,,,,,,,,,,,0,112,112,51,,,,,,,,,,,,,,,,,1165.5944880630122,None,1165.5944880630122,None,None,,-94.7801629646377,1170.6019425350241,None,,,,,,,1161.1931097370107,None,1161.1931097370107,1161.932442087098,1161.1931097370107,1161.932442087098,1162.5943631840637,None,1162.5943631840637,1163.3450256671058,1162.5943631840637,1163.3450256671058,1163.9952441810165,1164.1952751720091,1163.9952441810165,None,1171.1019855098682,None,4444,2022_Nov_28_1134,circle_rotation,2021.2.3,61.01227214519126,
159,102,195,127,"[25,45] degrees",neutral,-0.4,141,159,clockwise,36,25,,,,,,,,,,,,,0,113,113,32,,,,,,,,,,,,,,,,,1175.4980766880326,None,1175.4980766880326,None,space,3.0770010970300063,-94.7801629646377,1178.5990494370926,None,,,,,,,1171.0958736661123,None,1171.0958736661123,1171.8472023979994,1171.0958736661123,1171.8472023979994,1172.4864779410418,None,1172.4864779410418,1173.2479785340838,1172.4864779410418,1173.2479785340838,1173.8979249430122,1174.0982163650915,1173.8979249430122,None,1179.0992978218826,None,4444,2022_Nov_28_1134,circle_rotation,2021.2.3,61.01227214519126,
137,71,170,100,"[25,45] degrees",left,-0.4,156,137,clockwise,33,29,,,,,,,,,,,,,0,114,114,53,,,,,,,,,,,,,,,,,1183.5006937280996,None,1183.5006937280996,None,None,,-94.7801629646377,1188.5020595490932,None,,,,,,,1179.0992596570868,None,1179.0992596570868,1179.8492676680908,1179.0992596570868,1179.8492676680908,1180.4993640840985,None,1180.4993640840985,1181.2374938740395,1180.4993640840985,1181.2374938740395,1181.8907978960779,1182.0876956121065,1181.8907978960779,None,1189.0021124658058,None,4444,2022_Nov_28_1134,circle_rotation,2021.2.3,61.01227214519126,
65,92,38,66,"[25,45] degrees",left,-0.4,52,65,anticlockwise,-27,-26,,,,,,,,,,,,,0,115,115,81,,,,,,,,,,,,,,,,,1193.4031759550562,None,1193.4031759550562,None,None,,-94.7801629646377,1198.4051828840747,None,,,,,,,1189.0020854130853,None,1189.0020854130853,1189.7523134090006,1189.0020854130853,1189.7523134090006,1190.4022500400897,None,1190.4022500400897,1191.1404204310384,1190.4022500400897,1191.1404204310384,1191.8018343560398,1191.9904622210888,1191.8018343560398,None,1198.9049710017978,None,4444,2022_Nov_28_1134,circle_rotation,2021.2.3,61.01227214519126,
84,39,53,-4,"[25,45] degrees",left,-0.4,69,84,anticlockwise,-31,-43,,,,,,,,,,,,,0,116,116,93,,,,,,,,,,,,,,,,,1203.3062448200071,None,1203.3062448200071,None,None,,-94.7801629646377,1208.3075766210677,None,,,,,,,1198.904899797053,None,1198.904899797053,1199.6551662840648,1198.904899797053,1199.6551662840648,1200.3051027440233,None,1200.3051027440233,1201.0554607630474,1200.3051027440233,1201.0554607630474,1201.6949715610826,1201.8891202600207,1201.6949715610826,None,1208.8078569498728,None,4444,2022_Nov_28_1134,circle_rotation,2021.2.3,61.01227214519126,
23,156,54,178,"[25,45] degrees",neutral,-0.4,41,23,clockwise,31,22,,,,,,,,,,,,,0,117,117,20,,,,,,,,,,,,,,,,,1213.2090991910081,None,1213.2090991910081,None,None,,-94.7801629646377,1218.21041411208,None,,,,,,,1208.8078430161113,None,1208.8078430161113,1209.5577646110905,1208.8078430161113,1209.5577646110905,1210.2081093681045,None,1210.2081093681045,1210.9582658570725,1210.2081093681045,1210.9582658570725,1211.6085116320755,1211.8084117700346,1211.6085116320755,None,1218.7105891629005,None,4444,2022_Nov_28_1134,circle_rotation,2021.2.3,61.01227214519126,
118,158,150,185,"[25,45] degrees",neutral,-0.4,93,118,clockwise,32,27,,,,,,,,,,,,,0,118,118,52,,,,,,,,,,,,,,,,,1223.1117705820361,None,1223.1117705820361,None,space,2.0705484689678997,-94.7801629646377,1225.2119210941019,None,,,,,,,1218.7106579070678,None,1218.7106579070678,1219.460584698012,1218.7106579070678,1219.460584698012,1220.1107062750962,None,1220.1107062750962,1220.86119293503,1220.1107062750962,1220.86119293503,1221.5009483580943,1221.6944322501076,1221.5009483580943,None,1225.7121425378252,None,4444,2022_Nov_28_1134,circle_rotation,2021.2.3,61.01227214519126,
120,25,163,48,"[25,45] degrees",neutral,0.4,54,25,clockwise,23,43,,,,,,,,,,,,,0,119,119,38,,,,,,,,,,,,,,,,,1230.113460098044,None,1230.113460098044,None,space,3.3266115859150887,-94.7801629646377,1233.464497218025,None,,,,,,,1225.7122792730806,None,1225.7122792730806,1226.4627683340805,1225.7122792730806,1226.4627683340805,1227.1116781120654,None,1227.1116781120654,1227.8630643340293,1227.1116781120654,1227.8630643340293,1228.5130287409993,1228.713397028041,1228.5130287409993,None,1233.9647832368616,None,4444,2022_Nov_28_1134,circle_rotation,2021.2.3,61.01227214519126,
