left_gabor_ori,right_gabor_ori,left_distractor_ori,right_distractor_ori,similarity_range,cue,probe_x,probe_ori,correct_response,rotate_direction,similarity,another_similarity,instru_trials.thisRepN,instru_trials.thisTrialN,instru_trials.thisN,instru_trials.thisIndex,practice_loop.thisRepN,practice_loop.thisTrialN,practice_loop.thisN,practice_loop.thisIndex,practice.thisRepN,practice.thisTrialN,practice.thisN,practice.thisIndex,trials.thisRepN,trials.thisTrialN,trials.thisN,trials.thisIndex,fixation.started,fixation.stopped,left_gabor.started,left_gabor.stopped,right_gabor.started,right_gabor.stopped,fixation2.started,fixation2.stopped,left_distractor_prac.started,left_distractor_prac.stopped,right_distractor_prac.started,right_distractor_prac.stopped,cue_text.started,cue_text.stopped,fixation3.started,fixation3.stopped,cue_resp.started,cue_resp.stopped,probe.started,probe.stopped,response_ori,mouse.x,mouse.y,mouse.leftButton,mouse.midButton,mouse.rightButton,mouse.time,mouse.started,mouse.stopped,buffer.started,buffer.stopped,begin_text.started,begin_text.stopped,key_resp_3.keys,key_resp_3.rt,key_resp_3.started,key_resp_3.stopped,fix_cross.started,fix_cross.stopped,left_target.started,left_target.stopped,right_target.started,right_target.stopped,fix_cross2.started,fix_cross2.stopped,left_distractor_main.started,left_distractor_main.stopped,right_distractor_main.started,right_distractor_main.stopped,main_cue.started,main_cue.stopped,fix_cross3.started,fix_cross3.stopped,take_break.started,take_break.stopped,participant,date,expName,psychopyVersion,frameRate,
,,,,,,,,,,,,0,0,0,0,,,,,,,,,,,,,,,,,,,,,,,,,,,,,,,,,,,,,,,,,,,,,,,,,,,,,,,,,,,,,,,,,,,,444444,2022_Nov_30_1359,circle_rotation_long_behav,2021.2.3,59.902865209332994,
142,41,172,72,"[25,45] degrees",neutral,0.4,24,41,clockwise,31,30,,,,,0,0,0,0,0,0,0,2,,,,,14.09884447301738,None,14.09884447301738,15.111454494064674,14.09884447301738,15.111454494064674,16.09480045910459,None,16.09480045910459,17.095708103035577,16.09480045910459,17.095708103035577,18.095774188055657,18.295818280079402,18.095774188055657,None,19.6959729550872,None,19.6959729550872,None,15.390170378728026,[0.05486111111111111],[0.19930555555555557],[1],[0],[0],[2.7980068039614707],19.6959729550872,None,24.01371371699497,None,,,,,,,,,,,,,,,,,,,,,,,,,444444,2022_Nov_30_1359,circle_rotation_long_behav,2021.2.3,59.902865209332994,
119,172,85,127,"[25,45] degrees",neutral,0.4,156,172,anticlockwise,-45,-34,,,,,0,0,0,0,0,1,1,10,,,,,24.514484188053757,None,24.514484188053757,25.51391035108827,24.514484188053757,25.51391035108827,26.512893411098048,None,26.512893411098048,27.51515608804766,26.512893411098048,27.51515608804766,28.514907928998582,28.7156202821061,28.514907928998582,None,30.10504550510086,None,30.10504550510086,None,-37.70424322139081,[-0.0875],[0.11319444444444444],[1],[0],[0],[0.7674065359169617],30.10504550510086,None,32.38290885009337,None,,,,,,,,,,,,,,,,,,,,,,,,,444444,2022_Nov_30_1359,circle_rotation_long_behav,2021.2.3,59.902865209332994,
114,59,148,94,"[25,45] degrees",neutral,-0.4,79,114,clockwise,34,35,,,,,0,0,0,0,0,2,2,0,,,,,32.88297290808987,None,32.88297290808987,33.88331060402561,32.88297290808987,33.88331060402561,34.88330148800742,None,34.88330148800742,35.871856990037486,34.88330148800742,35.871856990037486,36.88453261810355,37.08460690907668,36.88453261810355,None,38.485114219016396,None,38.485114219016396,None,-24.884483526764285,[],[],[],[],[],[],38.485114219016396,None,44.98706516704988,None,,,,,,,,,,,,,,,,,,,,,,,,,444444,2022_Nov_30_1359,circle_rotation_long_behav,2021.2.3,59.902865209332994,
146,113,109,86,"[25,45] degrees",left,-0.4,166,146,anticlockwise,-37,-27,,,,,0,0,0,0,0,3,3,9,,,,,45.48636584705673,None,45.48636584705673,46.48577076301444,45.48636584705673,46.48577076301444,47.487745972000994,None,47.487745972000994,48.48720235307701,47.487745972000994,48.48720235307701,49.48690423509106,49.68780952505767,49.48690423509106,None,51.07969264208805,None,51.07969264208805,None,-24.884483526764285,[],[],[],[],[],[],51.07969264208805,None,57.590387778007425,None,,,,,,,,,,,,,,,,,,,,,,,,,444444,2022_Nov_30_1359,circle_rotation_long_behav,2021.2.3,59.902865209332994,
93,125,118,150,"[25,45] degrees",left,-0.4,77,93,clockwise,25,25,,,,,0,0,0,0,0,4,4,5,,,,,58.090315856039524,None,58.090315856039524,59.09055528603494,58.090315856039524,59.09055528603494,60.089861790067516,None,60.089861790067516,61.079161686007865,60.089861790067516,61.079161686007865,62.091889601084404,62.29137474508025,62.091889601084404,None,63.69248042802792,None,63.69248042802792,None,-24.884483526764285,[],[],[],[],[],[],63.69248042802792,None,70.1817949070828,None,,,,,,,,,,,,,,,,,,,,,,,,,444444,2022_Nov_30_1359,circle_rotation_long_behav,2021.2.3,59.902865209332994,
144,95,108,69,"[25,45] degrees",right,0.4,131,95,anticlockwise,-26,-36,,,,,0,0,0,0,0,5,5,11,,,,,70.68266218400095,None,70.68266218400095,71.69453185808379,70.68266218400095,71.69453185808379,72.69484935502987,None,72.69484935502987,73.69459553307388,72.69484935502987,73.69459553307388,74.69538275210653,74.89466821006499,74.69538275210653,None,76.29550976504106,None,76.29550976504106,None,-24.884483526764285,[],[],[],[],[],[],76.29550976504106,None,82.797631278052,None,,,,,,,,,,,,,,,,,,,,,,,,,444444,2022_Nov_30_1359,circle_rotation_long_behav,2021.2.3,59.902865209332994,
114,49,137,90,"[25,45] degrees",left,-0.4,109,114,clockwise,23,41,,,,,0,0,0,0,0,6,6,1,,,,,83.29787663801108,None,83.29787663801108,84.29774723900482,83.29787663801108,84.29774723900482,85.2977561650332,None,85.2977561650332,86.29640693007968,85.2977561650332,86.29640693007968,87.29845551308244,87.498761364026,87.29845551308244,None,88.89882378303446,None,88.89882378303446,None,-24.884483526764285,[],[],[],[],[],[],88.89882378303446,None,95.40064443903975,None,,,,,,,,,,,,,,,,,,,,,,,,,444444,2022_Nov_30_1359,circle_rotation_long_behav,2021.2.3,59.902865209332994,
84,31,63,-3,"[25,45] degrees",neutral,-0.4,80,84,anticlockwise,-21,-34,,,,,0,0,0,0,0,7,7,12,,,,,95.90055284404662,None,95.90055284404662,96.90144653408788,95.90055284404662,96.90144653408788,97.90154960204381,None,97.90154960204381,98.90174014400691,97.90154960204381,98.90174014400691,99.90143297601026,100.10151774506085,99.90143297601026,None,101.50214855209924,None,101.50214855209924,None,-24.884483526764285,[],[],[],[],[],[],101.50214855209924,None,108.00445890403353,None,,,,,,,,,,,,,,,,,,,,,,,,,444444,2022_Nov_30_1359,circle_rotation_long_behav,2021.2.3,59.902865209332994,
31,149,51,174,"[25,45] degrees",right,0.4,175,149,clockwise,25,20,,,,,0,0,0,0,0,8,8,3,,,,,108.50457906106021,None,108.50457906106021,109.50477175309788,108.50457906106021,109.50477175309788,110.5048374820035,None,110.5048374820035,111.50484503607731,110.5048374820035,111.50484503607731,112.50591859908309,112.70584708999377,112.50591859908309,None,114.10606325604022,None,114.10606325604022,None,-24.884483526764285,[],[],[],[],[],[],114.10606325604022,None,120.6073185360292,None,,,,,,,,,,,,,,,,,,,,,,,,,444444,2022_Nov_30_1359,circle_rotation_long_behav,2021.2.3,59.902865209332994,
39,103,17,81,"[25,45] degrees",neutral,0.4,83,103,anticlockwise,-22,-22,,,,,0,0,0,0,0,9,9,6,,,,,121.10787202604115,None,121.10787202604115,122.1085937920725,121.10787202604115,122.1085937920725,123.10874510509893,None,123.10874510509893,124.10887826606631,123.10874510509893,124.10887826606631,125.10914617707022,125.30915805604309,125.10914617707022,None,126.70999376510736,None,126.70999376510736,None,-24.884483526764285,[],[],[],[],[],[],126.70999376510736,None,133.2115825690562,None,,,,,,,,,,,,,,,,,,,,,,,,,444444,2022_Nov_30_1359,circle_rotation_long_behav,2021.2.3,59.902865209332994,
25,160,46,186,"[25,45] degrees",neutral,-0.4,23,25,clockwise,21,26,,,,,0,0,0,0,0,10,10,4,,,,,133.7116935790982,None,133.7116935790982,134.71219648001716,133.7116935790982,134.71219648001716,135.70182685006876,None,135.70182685006876,136.7127884970978,135.70182685006876,136.7127884970978,137.7132012330694,137.91260828101076,137.7132012330694,None,139.31278809602372,None,139.31278809602372,None,-24.884483526764285,[],[],[],[],[],[],139.31278809602372,None,145.81667610409204,None,,,,,,,,,,,,,,,,,,,,,,,,,444444,2022_Nov_30_1359,circle_rotation_long_behav,2021.2.3,59.902865209332994,
0,43,-41,4,"[25,45] degrees",right,0.4,88,43,anticlockwise,-39,-41,,,,,0,0,0,0,0,11,11,7,,,,,146.3214094430441,None,146.3214094430441,147.3322370890528,146.3214094430441,147.3322370890528,148.33287406200543,None,148.33287406200543,149.3325456570601,148.33287406200543,149.3325456570601,150.3329443030525,150.52133082400542,150.3329443030525,None,151.9170968850376,None,151.9170968850376,None,-24.884483526764285,[],[],[],[],[],[],151.9170968850376,None,158.41848004306667,None,,,,,,,,,,,,,,,,,,,,,,,,,444444,2022_Nov_30_1359,circle_rotation_long_behav,2021.2.3,59.902865209332994,
26,111,-8,90,"[25,45] degrees",neutral,-0.4,-17,26,anticlockwise,-34,-21,,,,,0,0,0,0,0,12,12,8,,,,,158.91847430099733,None,158.91847430099733,159.9189926040126,158.91847430099733,159.9189926040126,160.90904024010524,None,160.90904024010524,161.9200699540088,160.90904024010524,161.9200699540088,162.9201111390721,163.1202339680167,162.9201111390721,None,164.52043287805282,None,164.52043287805282,None,-24.884483526764285,[],[],[],[],[],[],164.52043287805282,None,171.0222847959958,None,,,,,,,,,,,,,,,,,,,,,,,,,444444,2022_Nov_30_1359,circle_rotation_long_behav,2021.2.3,59.902865209332994,
,,,,,,,,,,,,,,,,,,,,,,,,,,,,,,,,,,,,,,,,,,,,,,,,,,,,,,,,,,,174.30553650204092,None,space,0.8233338579302654,174.30553650204092,None,,,,,,,,,,,,,,,,,,,444444,2022_Nov_30_1359,circle_rotation_long_behav,2021.2.3,59.902865209332994,
49,172,4,134,"[25,45] degrees",right,0.4,201,172,anticlockwise,-38,-45,,,,,,,,,,,,,0,0,0,271,,,,,,,,,,,,,,,,,179.5578176130075,None,179.5578176130075,None,-24.884483526764285,[],[],[],[],[],[],179.5578176130075,None,184.55939560302068,None,,,,,,,175.178495926084,None,175.178495926084,175.94001007906627,175.178495926084,175.94001007906627,176.5734693420818,None,176.5734693420818,177.3243570420891,176.5734693420818,177.3243570420891,177.9576155419927,178.15765121905133,177.9576155419927,None,185.05947840715527,None,444444,2022_Nov_30_1359,circle_rotation_long_behav,2021.2.3,59.902865209332994,
142,120,112,88,"[25,45] degrees",right,0.4,133,120,anticlockwise,-32,-30,,,,,,,,,,,,,0,1,1,203,,,,,,,,,,,,,,,,,189.46079597005155,None,189.46079597005155,None,-24.884483526764285,[],[],[],[],[],[],189.46079597005155,None,194.4620059140725,None,,,,,,,185.05942715809215,None,185.05942715809215,185.80947934708092,185.05942715809215,185.80947934708092,186.4595672680298,None,186.4595672680298,187.2103832170833,186.4595672680298,187.2103832170833,187.86056719603948,188.06050222704653,187.86056719603948,None,194.96269498917974,None,444444,2022_Nov_30_1359,circle_rotation_long_behav,2021.2.3,59.902865209332994,
68,33,35,12,"[25,45] degrees",neutral,-0.4,86,68,anticlockwise,-33,-21,,,,,,,,,,,,,0,2,2,176,,,,,,,,,,,,,,,,,199.3635926110437,None,199.3635926110437,None,-24.884483526764285,[],[],[],[],[],[],199.3635926110437,None,204.36477981705684,None,,,,,,,194.96219177509192,None,194.96219177509192,195.71098557999358,194.96219177509192,195.71098557999358,196.36095598200336,None,196.36095598200336,197.11304830608424,196.36095598200336,197.11304830608424,197.76307103701402,197.9631386389956,197.76307103701402,None,204.86511840218446,None,444444,2022_Nov_30_1359,circle_rotation_long_behav,2021.2.3,59.902865209332994,
152,119,186,162,"[25,45] degrees",neutral,0.4,78,119,clockwise,43,34,,,,,,,,,,,,,0,3,3,94,,,,,,,,,,,,,,,,,209.2663032130804,None,209.2663032130804,None,-24.884483526764285,[],[],[],[],[],[],209.2663032130804,None,214.26772357302252,None,,,,,,,204.86513308109716,None,204.86513308109716,205.61410023400094,204.86513308109716,205.61410023400094,206.26551639905665,None,206.26551639905665,207.01614590303507,206.26551639905665,207.01614590303507,207.66634286299814,207.86637800803874,207.66634286299814,None,214.76781901613577,None,444444,2022_Nov_30_1359,circle_rotation_long_behav,2021.2.3,59.902865209332994,
115,22,153,59,"[25,45] degrees",right,0.4,62,22,clockwise,37,38,,,,,,,,,,,,,0,4,4,87,,,,,,,,,,,,,,,,,219.1696553210495,None,219.1696553210495,None,-24.884483526764285,[],[],[],[],[],[],219.1696553210495,None,224.17031766602304,None,,,,,,,214.76821912406012,None,214.76821912406012,215.51683305506594,214.76821912406012,215.51683305506594,216.1682997320313,None,216.1682997320313,216.9189710461069,216.1682997320313,216.9189710461069,217.5690058460459,217.76893633103464,217.5690058460459,None,224.67115165410797,None,444444,2022_Nov_30_1359,circle_rotation_long_behav,2021.2.3,59.902865209332994,
140,8,167,39,"[25,45] degrees",neutral,-0.4,155,140,clockwise,27,31,,,,,,,,,,,,,0,5,5,68,,,,,,,,,,,,,,,,,229.07225801900495,None,229.07225801900495,None,-24.884483526764285,[],[],[],[],[],[],229.07225801900495,None,234.07341255410574,None,,,,,,,224.66983562905807,None,224.66983562905807,225.4081579730846,224.66983562905807,225.4081579730846,226.06072804704309,None,226.06072804704309,226.82177082810085,226.06072804704309,226.82177082810085,227.47163903305773,227.6716558811022,227.47163903305773,None,234.57375472016867,None,444444,2022_Nov_30_1359,circle_rotation_long_behav,2021.2.3,59.902865209332994,
149,103,186,144,"[25,45] degrees",left,-0.4,109,149,clockwise,37,41,,,,,,,,,,,,,0,6,6,145,,,,,,,,,,,,,,,,,238.97480441210791,None,238.97480441210791,None,-24.884483526764285,[],[],[],[],[],[],238.97480441210791,None,243.976070792065,None,,,,,,,234.57345349702518,None,234.57345349702518,235.324011016055,234.57345349702518,235.324011016055,235.97274622204714,None,235.97274622204714,236.7244905710686,235.97274622204714,236.7244905710686,237.37482288002502,237.57415608910378,237.37482288002502,None,244.47642535216875,None,444444,2022_Nov_30_1359,circle_rotation_long_behav,2021.2.3,59.902865209332994,
69,164,36,134,"[25,45] degrees",neutral,0.4,143,164,anticlockwise,-30,-33,,,,,,,,,,,,,0,7,7,262,,,,,,,,,,,,,,,,,248.87750143103767,None,248.87750143103767,None,-24.884483526764285,[],[],[],[],[],[],248.87750143103767,None,253.87932917801663,None,,,,,,,244.47685255506076,None,244.47685255506076,245.2262973340694,244.47685255506076,245.2262973340694,245.87515188008547,None,245.87515188008547,246.61441962001845,245.87515188008547,246.61441962001845,247.27757517807186,247.47746330604423,247.27757517807186,None,254.37898852712243,None,444444,2022_Nov_30_1359,circle_rotation_long_behav,2021.2.3,59.902865209332994,
79,112,103,156,"[25,45] degrees",neutral,0.4,100,112,clockwise,44,24,,,,,,,,,,,,,0,8,8,110,,,,,,,,,,,,,,,,,258.7802183710737,None,258.7802183710737,None,-24.884483526764285,[],[],[],[],[],[],258.7802183710737,None,263.7983430530876,None,,,,,,,254.3792472690111,None,254.3792472690111,255.12811086000875,254.3792472690111,255.12811086000875,255.76916332705878,None,255.76916332705878,256.5175064660143,255.76916332705878,256.5175064660143,257.1802129020216,257.380117577035,257.1802129020216,None,264.2990270311828,None,444444,2022_Nov_30_1359,circle_rotation_long_behav,2021.2.3,59.902865209332994,
161,36,138,10,"[25,45] degrees",right,0.4,39,36,anticlockwise,-26,-23,,,,,,,,,,,,,0,9,9,267,,,,,,,,,,,,,,,,,268.6996830140706,None,268.6996830140706,None,-24.884483526764285,[],[],[],[],[],[],268.6996830140706,None,273.7011662160512,None,,,,,,,264.2986552270595,None,264.2986552270595,265.04778982000425,264.2986552270595,265.04778982000425,265.68882131006103,None,265.68882131006103,266.44797284004744,265.68882131006103,266.44797284004744,267.0996875260025,267.29977254301775,267.0996875260025,None,274.2013640001067,None,444444,2022_Nov_30_1359,circle_rotation_long_behav,2021.2.3,59.902865209332994,
107,171,73,131,"[25,45] degrees",neutral,0.4,169,171,anticlockwise,-40,-34,,,,,,,,,,,,,0,10,10,174,,,,,,,,,,,,,,,,,278.6026806550799,None,278.6026806550799,None,-24.884483526764285,[],[],[],[],[],[],278.6026806550799,None,283.6040101030376,None,,,,,,,274.20144858409185,None,274.20144858409185,274.9398500940297,274.20144858409185,274.9398500940297,275.591650182032,None,275.591650182032,276.3400886669988,275.591650182032,276.3400886669988,277.00253481103573,277.2025912411045,277.00253481103573,None,284.10416111816886,None,444444,2022_Nov_30_1359,circle_rotation_long_behav,2021.2.3,59.902865209332994,
46,78,74,121,"[25,45] degrees",right,0.4,121,78,clockwise,43,28,,,,,,,,,,,,,0,11,11,3,,,,,,,,,,,,,,,,,288.50546947005205,None,288.50546947005205,None,-24.884483526764285,[],[],[],[],[],[],288.50546947005205,None,293.5068960679928,None,,,,,,,284.10420878010336,None,284.10420878010336,284.8546950489981,284.10420878010336,284.8546950489981,285.5034611200681,None,285.5034611200681,286.253637794056,285.5034611200681,286.253637794056,286.9055372750154,287.10548814502545,286.9055372750154,None,294.0073001461686,None,444444,2022_Nov_30_1359,circle_rotation_long_behav,2021.2.3,59.902865209332994,
50,79,73,118,"[25,45] degrees",neutral,-0.4,30,50,clockwise,23,39,,,,,,,,,,,,,0,12,12,24,,,,,,,,,,,,,,,,,298.40830102399923,None,298.40830102399923,None,-24.884483526764285,[],[],[],[],[],[],298.40830102399923,None,303.40967886010185,None,,,,,,,294.0070689320564,None,294.0070689320564,294.7570269959979,294.0070689320564,294.7570269959979,295.40768854808994,None,295.40768854808994,296.1560001800535,295.40768854808994,296.1560001800535,296.8079198030755,297.00823896110523,296.8079198030755,None,303.9095638241968,None,444444,2022_Nov_30_1359,circle_rotation_long_behav,2021.2.3,59.902865209332994,
71,96,31,53,"[25,45] degrees",right,0.4,79,96,anticlockwise,-43,-40,,,,,,,,,,,,,0,13,13,303,,,,,,,,,,,,,,,,,308.3112024849979,None,308.3112024849979,None,-24.884483526764285,[],[],[],[],[],[],308.3112024849979,None,313.31247714103665,None,,,,,,,303.9095348780975,None,303.9095348780975,304.6598615529947,303.9095348780975,304.6598615529947,305.3098071269924,None,305.3098071269924,306.04797506402247,305.3098071269924,306.04797506402247,306.7113138070563,306.9112867930671,306.7113138070563,None,313.8125828431337,None,444444,2022_Nov_30_1359,circle_rotation_long_behav,2021.2.3,59.902865209332994,
54,9,88,47,"[25,45] degrees",neutral,0.4,-1,9,clockwise,38,34,,,,,,,,,,,,,0,14,14,66,,,,,,,,,,,,,,,,,318.2138469060883,None,318.2138469060883,None,-24.884483526764285,[],[],[],[],[],[],318.2138469060883,None,323.21532776299864,None,,,,,,,313.8128128700191,None,313.8128128700191,314.56278652406763,313.8128128700191,314.56278652406763,315.21199131407775,None,315.21199131407775,315.96205321501475,315.21199131407775,315.96205321501475,316.61214417102747,316.8136088650208,316.61214417102747,None,323.7153152751387,None,444444,2022_Nov_30_1359,circle_rotation_long_behav,2021.2.3,59.902865209332994,
16,90,-21,69,"[25,45] degrees",right,0.4,102,90,anticlockwise,-21,-37,,,,,,,,,,,,,0,15,15,231,,,,,,,,,,,,,,,,,328.11695251008496,None,328.11695251008496,None,-24.884483526764285,[],[],[],[],[],[],328.11695251008496,None,333.1179242420476,None,,,,,,,323.71552884206176,None,323.71552884206176,324.4539836270269,323.71552884206176,324.4539836270269,325.1161487590289,None,325.1161487590289,325.8661677390337,325.1161487590289,325.8661677390337,326.5149082990829,326.71669728599954,326.5149082990829,None,333.61821385218065,None,444444,2022_Nov_30_1359,circle_rotation_long_behav,2021.2.3,59.902865209332994,
9,58,51,102,"[25,45] degrees",neutral,-0.4,30,9,clockwise,42,44,,,,,,,,,,,,,0,16,16,104,,,,,,,,,,,,,,,,,338.0194316430716,None,338.0194316430716,None,-24.884483526764285,[],[],[],[],[],[],338.0194316430716,None,343.02124309609644,None,,,,,,,333.6183163530659,None,333.6183163530659,334.36826708202716,333.6183163530659,334.36826708202716,335.0176453770837,None,335.0176453770837,335.7689048961038,335.0176453770837,335.7689048961038,336.4176577850012,336.6069609610131,336.4176577850012,None,343.52097978909734,None,444444,2022_Nov_30_1359,circle_rotation_long_behav,2021.2.3,59.902865209332994,
121,98,151,122,"[25,45] degrees",neutral,0.4,65,98,clockwise,24,30,,,,,,,,,,,,,0,17,17,134,,,,,,,,,,,,,,,,,347.92266786505934,None,347.92266786505934,None,-24.884483526764285,[],[],[],[],[],[],347.92266786505934,None,352.92359756003134,None,,,,,,,343.5210445150733,None,343.5210445150733,344.27108399709687,343.5210445150733,344.27108399709687,344.92181685904507,None,344.92181685904507,345.67007814208046,344.92181685904507,345.67007814208046,346.32204405602533,346.52028422500007,346.32204405602533,None,353.4240034191287,None,444444,2022_Nov_30_1359,circle_rotation_long_behav,2021.2.3,59.902865209332994,
45,156,81,177,"[25,45] degrees",right,0.4,136,156,clockwise,21,36,,,,,,,,,,,,,0,18,18,111,,,,,,,,,,,,,,,,,357.8250033160439,None,357.8250033160439,None,-24.884483526764285,[],[],[],[],[],[],357.8250033160439,None,362.8265717800241,None,,,,,,,353.42369976709597,None,353.42369976709597,354.1735264310846,353.42369976709597,354.1735264310846,354.8227969961008,None,354.8227969961008,355.5778886680491,354.8227969961008,355.5778886680491,356.2154837331036,356.41177604405675,356.2154837331036,None,363.3265923011466,None,444444,2022_Nov_30_1359,circle_rotation_long_behav,2021.2.3,59.902865209332994,
175,141,154,98,"[25,45] degrees",left,-0.4,213,175,anticlockwise,-21,-43,,,,,,,,,,,,,0,19,19,309,,,,,,,,,,,,,,,,,367.72793402906973,None,367.72793402906973,None,-24.884483526764285,[],[],[],[],[],[],367.72793402906973,None,372.7467982820235,None,,,,,,,363.3266518689925,None,363.3266518689925,364.0768599540461,363.3266518689925,364.0768599540461,364.727108687046,None,364.727108687046,365.4760162110906,364.727108687046,365.4760162110906,366.12579095410183,366.31506949302275,366.12579095410183,None,373.2459987101727,None,444444,2022_Nov_30_1359,circle_rotation_long_behav,2021.2.3,59.902865209332994,
148,14,105,-11,"[25,45] degrees",right,0.4,-12,14,anticlockwise,-25,-43,,,,,,,,,,,,,0,20,20,183,,,,,,,,,,,,,,,,,377.64786889904644,None,377.64786889904644,None,-24.884483526764285,[],[],[],[],[],[],377.64786889904644,None,382.6491965689929,None,,,,,,,373.2462190450169,None,373.2462190450169,373.99620910710655,373.2462190450169,373.99620910710655,374.64621691301,None,374.64621691301,375.38409615005367,374.64621691301,375.38409615005367,376.03804952208884,376.24703375599347,376.03804952208884,None,383.1492702351068,None,444444,2022_Nov_30_1359,circle_rotation_long_behav,2021.2.3,59.902865209332994,
76,131,111,169,"[25,45] degrees",neutral,0.4,151,131,clockwise,38,35,,,,,,,,,,,,,0,21,21,98,,,,,,,,,,,,,,,,,387.5504372169962,None,387.5504372169962,None,-24.884483526764285,[],[],[],[],[],[],387.5504372169962,None,392.5520292100264,None,,,,,,,383.14884602301754,None,383.14884602301754,383.8988375189947,383.14884602301754,383.8988375189947,384.54824129410554,None,384.54824129410554,385.2984642270021,384.54824129410554,385.2984642270021,385.94084700208623,386.1485630820971,385.94084700208623,None,393.05140454614303,None,444444,2022_Nov_30_1359,circle_rotation_long_behav,2021.2.3,59.902865209332994,
167,28,145,6,"[25,45] degrees",neutral,-0.4,201,167,anticlockwise,-22,-22,,,,,,,,,,,,,0,22,22,284,,,,,,,,,,,,,,,,,397.4533048440935,None,397.4533048440935,None,-24.884483526764285,[],[],[],[],[],[],397.4533048440935,None,402.4547441030154,None,,,,,,,393.0513776700245,None,393.0513776700245,393.801821590052,393.0513776700245,393.801821590052,394.45243483409286,None,394.45243483409286,395.2024295880692,394.45243483409286,395.2024295880692,395.8526544860797,396.05206208501477,395.8526544860797,None,402.9545402071788,None,444444,2022_Nov_30_1359,circle_rotation_long_behav,2021.2.3,59.902865209332994,
140,61,107,21,"[25,45] degrees",neutral,-0.4,107,140,anticlockwise,-33,-40,,,,,,,,,,,,,0,23,23,192,,,,,,,,,,,,,,,,,407.3560979790054,None,407.3560979790054,None,-24.884483526764285,[],[],[],[],[],[],407.3560979790054,None,412.3572003520094,None,,,,,,,402.9545281090541,None,402.9545281090541,403.7046096670674,402.9545281090541,403.7046096670674,404.35511649306864,None,404.35511649306864,405.1054109890247,404.35511649306864,405.1054109890247,405.7548452690244,405.9536818190245,405.7548452690244,None,412.85713506316534,None,444444,2022_Nov_30_1359,circle_rotation_long_behav,2021.2.3,59.902865209332994,
59,156,89,178,"[25,45] degrees",right,0.4,174,156,clockwise,22,30,,,,,,,,,,,,,0,24,24,83,,,,,,,,,,,,,,,,,417.258547028061,None,417.258547028061,None,-24.884483526764285,[],[],[],[],[],[],417.258547028061,None,422.26009812101256,None,,,,,,,412.85738960199524,None,412.85738960199524,413.60724889009725,412.85738960199524,413.60724889009725,414.2574851210229,None,414.2574851210229,415.0075404930394,414.2574851210229,415.0075404930394,415.6490370500833,415.84591826505493,415.6490370500833,None,422.7600417451584,None,444444,2022_Nov_30_1359,circle_rotation_long_behav,2021.2.3,59.902865209332994,
179,75,200,117,"[25,45] degrees",left,-0.4,180,179,clockwise,21,42,,,,,,,,,,,,,0,25,25,57,,,,,,,,,,,,,,,,,427.1617376410868,None,427.1617376410868,None,-24.884483526764285,[],[],[],[],[],[],427.1617376410868,None,432.1797378520714,None,,,,,,,422.75970155908726,None,422.75970155908726,423.5102794310078,422.75970155908726,423.5102794310078,424.16046062204987,None,424.16046062204987,424.9107560730772,424.16046062204987,424.9107560730772,425.55950334109366,425.76114800199866,425.55950334109366,None,432.6833091921988,None,444444,2022_Nov_30_1359,circle_rotation_long_behav,2021.2.3,59.902865209332994,
130,55,154,79,"[25,45] degrees",neutral,-0.4,172,130,clockwise,24,24,,,,,,,,,,,,,0,26,26,4,,,,,,,,,,,,,,,,,437.0812116640154,None,437.0812116640154,None,-24.884483526764285,[],[],[],[],[],[],437.0812116640154,None,442.08252559404355,None,,,,,,,432.67999087204225,None,432.67999087204225,433.4297474020859,432.67999087204225,433.4297474020859,434.07994985510595,None,434.07994985510595,434.8300221241079,434.07994985510595,434.8300221241079,435.47903677099384,435.66852080705576,435.47903677099384,None,442.5826428561821,None,444444,2022_Nov_30_1359,circle_rotation_long_behav,2021.2.3,59.902865209332994,
151,15,130,-5,"[25,45] degrees",neutral,-0.4,143,151,anticlockwise,-21,-20,,,,,,,,,,,,,0,27,27,164,,,,,,,,,,,,,,,,,446.98401574708987,None,446.98401574708987,None,-24.884483526764285,[],[],[],[],[],[],446.98401574708987,None,451.9853491480462,None,,,,,,,442.5825992950704,None,442.5825992950704,443.33260347903706,442.5825992950704,443.33260347903706,443.98260614206083,None,443.98260614206083,444.73327257100027,443.98260614206083,444.73327257100027,445.38337127503473,445.58329513005447,445.38337127503473,None,452.4851991551812,None,444444,2022_Nov_30_1359,circle_rotation_long_behav,2021.2.3,59.902865209332994,
10,63,50,98,"[25,45] degrees",neutral,0.4,79,63,clockwise,35,40,,,,,,,,,,,,,0,28,28,26,,,,,,,,,,,,,,,,,456.8865290490212,None,456.8865290490212,None,-24.884483526764285,[],[],[],[],[],[],456.8865290490212,None,461.8880854190793,None,,,,,,,452.4852981980657,None,452.4852981980657,453.2352931270143,452.4852981980657,453.2352931270143,453.88547356100753,None,453.88547356100753,454.63603404699825,453.88547356100753,454.63603404699825,455.2848454490304,455.4849166100612,455.2848454490304,None,462.3882881561411,None,444444,2022_Nov_30_1359,circle_rotation_long_behav,2021.2.3,59.902865209332994,
21,43,-15,1,"[25,45] degrees",neutral,0.4,20,43,anticlockwise,-42,-36,,,,,,,,,,,,,0,29,29,202,,,,,,,,,,,,,,,,,466.7893455660669,None,466.7893455660669,None,-24.884483526764285,[],[],[],[],[],[],466.7893455660669,None,471.79104248806834,None,,,,,,,462.38827346102335,None,462.38827346102335,463.1385473810369,462.38827346102335,463.1385473810369,463.7883051300887,None,463.7883051300887,464.538862192072,463.7883051300887,464.538862192072,465.17816160200164,465.3887197410222,465.17816160200164,None,472.29099109409145,None,444444,2022_Nov_30_1359,circle_rotation_long_behav,2021.2.3,59.902865209332994,
117,20,94,-14,"[25,45] degrees",left,-0.4,96,117,anticlockwise,-23,-34,,,,,,,,,,,,,0,30,30,281,,,,,,,,,,,,,,,,,476.691753974068,None,476.691753974068,None,-24.884483526764285,[],[],[],[],[],[],476.691753974068,None,481.69339256407693,None,,,,,,,472.2911765089957,None,472.2911765089957,473.04101400100626,472.2911765089957,473.04101400100626,473.6911261540372,None,473.6911261540372,474.44141471001785,473.6911261540372,474.44141471001785,475.0828047770774,475.29154680203646,475.0828047770774,None,482.19401637617267,None,444444,2022_Nov_30_1359,circle_rotation_long_behav,2021.2.3,59.902865209332994,
177,111,137,75,"[25,45] degrees",neutral,0.4,75,111,anticlockwise,-36,-40,,,,,,,,,,,,,0,31,31,250,,,,,,,,,,,,,,,,,486.5948497360805,None,486.5948497360805,None,-24.884483526764285,[],[],[],[],[],[],486.5948497360805,None,491.59491780400276,None,,,,,,,482.19384156004526,None,482.19384156004526,482.9436814880464,482.19384156004526,482.9436814880464,483.593843691051,None,483.593843691051,484.34444168105256,483.593843691051,484.34444168105256,484.9946983160917,485.19330952805467,484.9946983160917,None,492.09659840016394,None,444444,2022_Nov_30_1359,circle_rotation_long_behav,2021.2.3,59.902865209332994,
116,177,87,136,"[25,45] degrees",right,0.4,201,177,anticlockwise,-41,-29,,,,,,,,,,,,,0,32,32,247,,,,,,,,,,,,,,,,,496.4963140520267,None,496.4963140520267,None,-24.884483526764285,[],[],[],[],[],[],496.4963140520267,None,501.49778841400985,None,,,,,,,492.09666860906873,None,492.09666860906873,492.84632277605124,492.09666860906873,492.84632277605124,493.49682331702206,None,493.49682331702206,494.2465742500499,493.49682331702206,494.2465742500499,494.896976896096,495.0851705520181,494.896976896096,None,501.99946679618444,None,444444,2022_Nov_30_1359,circle_rotation_long_behav,2021.2.3,59.902865209332994,
132,48,94,14,"[25,45] degrees",left,-0.4,130,132,anticlockwise,-38,-34,,,,,,,,,,,,,0,33,33,161,,,,,,,,,,,,,,,,,506.4004460379947,None,506.4004460379947,None,-24.884483526764285,[],[],[],[],[],[],506.4004460379947,None,511.40034908009693,None,,,,,,,501.999651413993,None,501.999651413993,502.74974171607755,501.999651413993,502.74974171607755,503.39950234105345,None,503.39950234105345,504.1495692851022,503.39950234105345,504.1495692851022,504.79986295406707,505.000255229068,504.79986295406707,None,511.9023470811197,None,444444,2022_Nov_30_1359,circle_rotation_long_behav,2021.2.3,59.902865209332994,
20,132,-1,105,"[25,45] degrees",neutral,-0.4,8,20,anticlockwise,-21,-27,,,,,,,,,,,,,0,34,34,268,,,,,,,,,,,,,,,,,516.2940615850966,None,516.2940615850966,None,-24.884483526764285,[],[],[],[],[],[],516.2940615850966,None,521.2937662890181,None,,,,,,,511.90221402805764,None,511.90221402805764,512.6524003510131,511.90221402805764,512.6524003510131,513.3026500170818,None,513.3026500170818,514.0529082620051,513.3026500170818,514.0529082620051,514.7023776090937,514.9024901560042,514.7023776090937,None,521.8048544161836,None,444444,2022_Nov_30_1359,circle_rotation_long_behav,2021.2.3,59.902865209332994,
28,157,71,200,"[25,45] degrees",right,0.4,187,157,clockwise,43,43,,,,,,,,,,,,,0,35,35,103,,,,,,,,,,,,,,,,,526.2044887180673,None,526.2044887180673,None,-24.884483526764285,[],[],[],[],[],[],526.2044887180673,None,531.2074849240016,None,,,,,,,521.8047838370549,None,521.8047838370549,522.5549785640324,521.8047838370549,522.5549785640324,523.2050159110222,None,523.2050159110222,523.9550244300626,523.2050159110222,523.9550244300626,524.6054500550963,524.8046181240352,524.6054500550963,None,531.7074967651977,None,444444,2022_Nov_30_1359,circle_rotation_long_behav,2021.2.3,59.902865209332994,
135,55,176,93,"[25,45] degrees",right,0.4,37,55,clockwise,38,41,,,,,,,,,,,,,0,36,36,7,,,,,,,,,,,,,,,,,536.1088173360331,None,536.1088173360331,None,-24.884483526764285,[],[],[],[],[],[],536.1088173360331,None,541.1102781350492,None,,,,,,,531.7061994420364,None,531.7061994420364,532.457977294107,531.7061994420364,532.457977294107,533.1078296960331,None,533.1078296960331,533.8579302460421,533.1078296960331,533.8579302460421,534.5082105060574,534.7083852340002,534.5082105060574,None,541.6103400001418,None,444444,2022_Nov_30_1359,circle_rotation_long_behav,2021.2.3,59.902865209332994,
28,90,-6,69,"[25,45] degrees",left,-0.4,-15,28,anticlockwise,-34,-21,,,,,,,,,,,,,0,37,37,233,,,,,,,,,,,,,,,,,546.0007622560952,None,546.0007622560952,None,-24.884483526764285,[],[],[],[],[],[],546.0007622560952,None,551.0127620580606,None,,,,,,,541.6090879430994,None,541.6090879430994,542.3610154479975,541.6090879430994,542.3610154479975,543.010283894022,None,543.010283894022,543.7610175290611,543.010283894022,543.7610175290611,544.4108108100481,544.6110534140607,544.4108108100481,None,551.5125424121622,None,444444,2022_Nov_30_1359,circle_rotation_long_behav,2021.2.3,59.902865209332994,
2,61,33,102,"[25,45] degrees",left,-0.4,-22,2,clockwise,31,41,,,,,,,,,,,,,0,38,38,41,,,,,,,,,,,,,,,,,555.914230692084,None,555.914230692084,None,-24.884483526764285,[],[],[],[],[],[],555.914230692084,None,560.9156518980162,None,,,,,,,551.5127707000356,None,551.5127707000356,552.2635906510986,551.5127707000356,552.2635906510986,552.9136200851062,None,552.9136200851062,553.6637439420447,552.9136200851062,553.6637439420447,554.3139656600542,554.5139670810895,554.3139656600542,None,561.4155815831734,None,444444,2022_Nov_30_1359,circle_rotation_long_behav,2021.2.3,59.902865209332994,
63,158,100,198,"[25,45] degrees",neutral,-0.4,59,63,clockwise,37,40,,,,,,,,,,,,,0,39,39,8,,,,,,,,,,,,,,,,,565.8169322150061,None,565.8169322150061,None,-24.884483526764285,[],[],[],[],[],[],565.8169322150061,None,570.818307099049,None,,,,,,,561.415698530036,None,561.415698530036,562.1664485280635,561.415698530036,562.1664485280635,562.8164158760337,None,562.8164158760337,563.5660521850223,562.8164158760337,563.5660521850223,564.2166220530635,564.4166917450493,564.2166220530635,None,571.3183002070291,None,444444,2022_Nov_30_1359,circle_rotation_long_behav,2021.2.3,59.902865209332994,
39,124,64,161,"[25,45] degrees",neutral,0.4,128,124,clockwise,37,25,,,,,,,,,,,,,0,40,40,146,,,,,,,,,,,,,,,,,605.7197095419979,None,605.7197095419979,None,-24.884483526764285,[],[],[],[],[],[],605.7197095419979,None,610.7300161040621,None,,,,,,,601.326893710997,None,601.326893710997,602.0777463540435,601.326893710997,602.0777463540435,602.7276457560947,None,602.7276457560947,603.477598772035,602.7276457560947,603.477598772035,604.128039641073,604.328425554093,604.128039641073,None,611.2300136000965,None,444444,2022_Nov_30_1359,circle_rotation_long_behav,2021.2.3,59.902865209332994,
103,23,83,-18,"[25,45] degrees",neutral,0.4,0,23,anticlockwise,-41,-20,,,,,,,,,,,,,0,41,41,306,,,,,,,,,,,,,,,,,615.630921698059,None,615.630921698059,None,-24.884483526764285,[],[],[],[],[],[],615.630921698059,None,620.6327843440231,None,,,,,,,611.2288668010151,None,611.2288668010151,611.9806379020447,611.2288668010151,611.9806379020447,612.6307117420947,None,612.6307117420947,613.3806149510201,612.6307117420947,613.3806149510201,614.0306821441045,614.2308077610796,614.0306821441045,None,621.1368689041235,None,444444,2022_Nov_30_1359,circle_rotation_long_behav,2021.2.3,59.902865209332994,
70,151,35,123,"[25,45] degrees",left,-0.4,47,70,anticlockwise,-35,-28,,,,,,,,,,,,,0,42,42,277,,,,,,,,,,,,,,,,,625.5251849041088,None,625.5251849041088,None,-24.884483526764285,[],[],[],[],[],[],625.5251849041088,None,630.5250172140077,None,,,,,,,621.131110768998,None,621.131110768998,621.8833461080212,621.131110768998,621.8833461080212,622.5334343960276,None,622.5334343960276,623.2834257540526,622.5334343960276,623.2834257540526,623.9333925640676,624.1339299459942,623.9333925640676,None,631.0353128591203,None,444444,2022_Nov_30_1359,circle_rotation_long_behav,2021.2.3,59.902865209332994,
93,15,126,45,"[25,45] degrees",left,-0.4,50,93,clockwise,33,30,,,,,,,,,,,,,0,43,43,117,,,,,,,,,,,,,,,,,635.436617332045,None,635.436617332045,None,-24.884483526764285,[],[],[],[],[],[],635.436617332045,None,640.4443353760289,None,,,,,,,631.0341627160087,None,631.0341627160087,631.7734047300182,631.0341627160087,631.7734047300182,632.4361786270747,None,632.4361786270747,633.186530827079,632.4361786270747,633.186530827079,633.8382045699982,634.0533444971079,633.8382045699982,None,640.9551399691379,None,444444,2022_Nov_30_1359,circle_rotation_long_behav,2021.2.3,59.902865209332994,
5,108,-17,82,"[25,45] degrees",left,-0.4,-26,5,anticlockwise,-22,-26,,,,,,,,,,,,,0,44,44,173,,,,,,,,,,,,,,,,,645.3564086460974,None,645.3564086460974,None,-24.884483526764285,[],[],[],[],[],[],645.3564086460974,None,650.3637086340459,None,,,,,,,640.9539614400128,None,640.9539614400128,641.7051603980362,640.9539614400128,641.7051603980362,642.3558925830293,None,642.3558925830293,643.1054616291076,642.3558925830293,643.1054616291076,643.756293968996,643.9558633820852,643.756293968996,None,650.8746373101719,None,444444,2022_Nov_30_1359,circle_rotation_long_behav,2021.2.3,59.902865209332994,
80,45,43,8,"[25,45] degrees",left,-0.4,49,80,anticlockwise,-37,-37,,,,,,,,,,,,,0,45,45,289,,,,,,,,,,,,,,,,,655.2760564950295,None,655.2760564950295,None,-24.884483526764285,[],[],[],[],[],[],655.2760564950295,None,660.277331352001,None,,,,,,,650.874762780033,None,650.874762780033,651.6246028060559,650.874762780033,651.6246028060559,652.2752019240288,None,652.2752019240288,653.02526231308,652.2752019240288,653.02526231308,653.6753410600359,653.8753688510042,653.6753410600359,None,660.7817282941076,None,444444,2022_Nov_30_1359,circle_rotation_long_behav,2021.2.3,59.902865209332994,
93,119,60,87,"[25,45] degrees",neutral,-0.4,116,93,anticlockwise,-33,-32,,,,,,,,,,,,,0,46,46,216,,,,,,,,,,,,,,,,,665.1784977730131,None,665.1784977730131,None,-24.884483526764285,[],[],[],[],[],[],665.1784977730131,None,670.1798698561033,None,,,,,,,660.7757853580406,None,660.7757853580406,661.5153129040264,660.7757853580406,661.5153129040264,662.1777998090256,None,662.1777998090256,662.9283642770024,662.1777998090256,662.9283642770024,663.5779801770113,663.7781657840824,663.5779801770113,None,670.6790160101489,None,444444,2022_Nov_30_1359,circle_rotation_long_behav,2021.2.3,59.902865209332994,
36,158,62,179,"[25,45] degrees",neutral,0.4,177,158,clockwise,21,26,,,,,,,,,,,,,0,47,47,86,,,,,,,,,,,,,,,,,675.0814507730538,None,675.0814507730538,None,-24.884483526764285,[],[],[],[],[],[],675.0814507730538,None,680.0826609020587,None,,,,,,,670.672337422031,None,670.672337422031,671.4178620380117,670.672337422031,671.4178620380117,672.0809147300897,None,672.0809147300897,672.8304454860045,672.0809147300897,672.8304454860045,673.4808985540876,673.6809074881021,673.4808985540876,None,680.5872157281381,None,444444,2022_Nov_30_1359,circle_rotation_long_behav,2021.2.3,59.902865209332994,
101,173,144,211,"[25,45] degrees",neutral,-0.4,88,101,clockwise,43,38,,,,,,,,,,,,,0,48,48,60,,,,,,,,,,,,,,,,,684.9839900950901,None,684.9839900950901,None,-24.884483526764285,[],[],[],[],[],[],684.9839900950901,None,689.9853418470593,None,,,,,,,680.5814200610621,None,680.5814200610621,681.31996019301,680.5814200610621,681.31996019301,681.983592288103,None,681.983592288103,682.7333307310473,681.983592288103,682.7333307310473,683.3840593351051,683.5837607620051,683.3840593351051,None,690.4858315651188,None,444444,2022_Nov_30_1359,circle_rotation_long_behav,2021.2.3,59.902865209332994,
125,67,156,90,"[25,45] degrees",right,0.4,44,67,clockwise,23,31,,,,,,,,,,,,,0,49,49,55,,,,,,,,,,,,,,,,,694.8870083570946,None,694.8870083570946,None,-24.884483526764285,[],[],[],[],[],[],694.8870083570946,None,699.8883057420608,None,,,,,,,690.4857170920586,None,690.4857170920586,691.2359632620355,690.4857170920586,691.2359632620355,691.8862548420439,None,691.8862548420439,692.6364696579985,691.8862548420439,692.6364696579985,693.2864239130868,693.4865268770372,693.2864239130868,None,700.3883818811853,None,444444,2022_Nov_30_1359,circle_rotation_long_behav,2021.2.3,59.902865209332994,
35,85,77,126,"[25,45] degrees",neutral,-0.4,37,35,clockwise,42,41,,,,,,,,,,,,,0,50,50,12,,,,,,,,,,,,,,,,,704.7897395450855,None,704.7897395450855,None,-24.884483526764285,[],[],[],[],[],[],704.7897395450855,None,709.7911389260553,None,,,,,,,700.3884441270493,None,700.3884441270493,701.1382510750555,700.3884441270493,701.1382510750555,701.7884480820503,None,701.7884480820503,702.5393487400142,701.7884480820503,702.5393487400142,703.1893201920902,703.3894569730619,703.1893201920902,None,710.2911608971306,None,444444,2022_Nov_30_1359,circle_rotation_long_behav,2021.2.3,59.902865209332994,
30,86,56,116,"[25,45] degrees",right,0.4,44,86,clockwise,30,26,,,,,,,,,,,,,0,51,51,91,,,,,,,,,,,,,,,,,714.6925330080558,None,714.6925330080558,None,-24.884483526764285,[],[],[],[],[],[],714.6925330080558,None,719.6938939590473,None,,,,,,,710.291245311033,None,710.291245311033,711.0412843429949,710.291245311033,711.0412843429949,711.6913272090023,None,711.6913272090023,712.4420493050711,711.6913272090023,712.4420493050711,713.0916062060278,713.2921497999923,713.0916062060278,None,720.1939627261715,None,444444,2022_Nov_30_1359,circle_rotation_long_behav,2021.2.3,59.902865209332994,
50,134,24,99,"[25,45] degrees",neutral,-0.4,83,50,anticlockwise,-26,-35,,,,,,,,,,,,,0,52,52,212,,,,,,,,,,,,,,,,,724.5953190240543,None,724.5953190240543,None,-24.884483526764285,[],[],[],[],[],[],724.5953190240543,None,729.5965181320207,None,,,,,,,720.1938261500327,None,720.1938261500327,720.9438917310908,720.1938261500327,720.9438917310908,721.5940804870334,None,721.5940804870334,722.3447794590611,721.5940804870334,722.3447794590611,722.99481487507,723.1950153850485,722.99481487507,None,730.096703193162,None,444444,2022_Nov_30_1359,circle_rotation_long_behav,2021.2.3,59.902865209332994,
72,117,107,155,"[25,45] degrees",neutral,0.4,101,117,clockwise,38,35,,,,,,,,,,,,,0,53,53,22,,,,,,,,,,,,,,,,,734.4982167599956,None,734.4982167599956,None,-24.884483526764285,[],[],[],[],[],[],734.4982167599956,None,739.4993764390238,None,,,,,,,730.0967264421051,None,730.0967264421051,730.8464913830394,730.0967264421051,730.8464913830394,731.4967955620959,None,731.4967955620959,732.2477190491045,731.4967955620959,732.2477190491045,732.8977200250374,733.0978200610261,732.8977200250374,None,739.999366635119,None,444444,2022_Nov_30_1359,circle_rotation_long_behav,2021.2.3,59.902865209332994,
96,145,119,190,"[25,45] degrees",neutral,-0.4,59,96,clockwise,23,45,,,,,,,,,,,,,0,54,54,20,,,,,,,,,,,,,,,,,744.4007594160503,None,744.4007594160503,None,-24.884483526764285,[],[],[],[],[],[],744.4007594160503,None,749.4022095720284,None,,,,,,,739.9993589840597,None,739.9993589840597,740.7494809090858,739.9993589840597,740.7494809090858,741.399584923056,None,741.399584923056,742.1504876770778,741.399584923056,742.1504876770778,742.8005707580596,743.0007638500538,742.8005707580596,None,749.9024282771977,None,444444,2022_Nov_30_1359,circle_rotation_long_behav,2021.2.3,59.902865209332994,
63,147,83,172,"[25,45] degrees",neutral,-0.4,107,63,clockwise,20,25,,,,,,,,,,,,,0,55,55,144,,,,,,,,,,,,,,,,,754.3036825540476,None,754.3036825540476,None,-24.884483526764285,[],[],[],[],[],[],754.3036825540476,None,759.3046015520813,None,,,,,,,749.9023428480141,None,749.9023428480141,750.6525706490502,749.9023428480141,750.6525706490502,751.3025584430434,None,751.3025584430434,752.0532883120468,751.3025584430434,752.0532883120468,752.7034258040367,752.9032237030333,752.7034258040367,None,759.8047366241342,None,444444,2022_Nov_30_1359,circle_rotation_long_behav,2021.2.3,59.902865209332994,
79,133,105,157,"[25,45] degrees",neutral,0.4,175,133,clockwise,24,26,,,,,,,,,,,,,0,56,56,42,,,,,,,,,,,,,,,,,764.2063158249948,None,764.2063158249948,None,-24.884483526764285,[],[],[],[],[],[],764.2063158249948,None,769.207863203017,None,,,,,,,759.8045803800924,None,759.8045803800924,760.5551686560502,759.8045803800924,760.5551686560502,761.2052948140772,None,761.2052948140772,761.9561008500168,761.2052948140772,761.9561008500168,762.6060643340461,762.8062963250559,762.6060643340461,None,769.7081129821133,None,444444,2022_Nov_30_1359,circle_rotation_long_behav,2021.2.3,59.902865209332994,
10,170,40,194,"[25,45] degrees",right,0.4,169,170,clockwise,24,30,,,,,,,,,,,,,0,57,57,71,,,,,,,,,,,,,,,,,774.1090159791056,None,774.1090159791056,None,-24.884483526764285,[],[],[],[],[],[],774.1090159791056,None,779.110542880022,None,,,,,,,769.708339364035,None,769.708339364035,770.4571987880627,769.708339364035,770.4571987880627,771.1085861340398,None,771.1085861340398,771.8589507630095,771.1085861340398,771.8589507630095,772.5092590710847,772.7094939530361,772.5092590710847,None,779.6107656401698,None,444444,2022_Nov_30_1359,circle_rotation_long_behav,2021.2.3,59.902865209332994,
38,95,69,131,"[25,45] degrees",neutral,0.4,78,95,clockwise,36,31,,,,,,,,,,,,,0,58,58,114,,,,,,,,,,,,,,,,,784.0120384630281,None,784.0120384630281,None,-24.884483526764285,[],[],[],[],[],[],784.0120384630281,None,789.0131265050732,None,,,,,,,779.6099250620464,None,779.6099250620464,780.3489602510817,779.6099250620464,780.3489602510817,781.0113554320997,None,781.0113554320997,781.7615418840433,781.0113554320997,781.7615418840433,782.4117927760817,782.6121187830577,782.4117927760817,None,789.5134967251331,None,444444,2022_Nov_30_1359,circle_rotation_long_behav,2021.2.3,59.902865209332994,
,,,,,,,,,,,,,,,,,,,,,,,,,,,,,,,,,,,,,,,,,,,,,,,,,,,,,,,,,,,,,,,,,789.5134828800801,None,789.5134828800801,790.2623224620475,789.5134828800801,790.2623224620475,790.9124189550057,None,790.9124189550057,791.6513068410568,790.9124189550057,791.6513068410568,792.3144137050258,792.5144534070278,792.3144137050258,None,,,,,,,,
